trials.thisRepN,trials.thisTrialN,trials.thisN,trials.thisIndex,number of distractors,fixation.started,target.started,mouse.started,fixation.stopped,mouse.x,mouse.y,mouse.leftButton,mouse.midButton,mouse.rightButton,mouse.time,mouse.clicked_name,participant,session,date,expName,psychopyVersion,frameRate
0,0,0,0,10,51.10014516,51.10014516,0.058115007,52.10365893,[0.24722222222222223],[-0.019444444444444445],[1],[0],[0],[2.7519191093742847],['target'],MUSKANTUTORIAL3FINAL,1,2023-09-26_04h40.21.309,tutorial3_muskanjain_au2120087,2023.1.3,60.09882914
1,0,1,0,5,53.86200291,53.86200291,0.025641732,,[0.24722222222222223],[-0.019444444444444445],[1],[0],[0],[0.5352932699024677],[],MUSKANTUTORIAL3FINAL,1,2023-09-26_04h40.21.309,tutorial3_muskanjain_au2120087,2023.1.3,60.09882914
2,0,2,0,5,54.42912546,54.42912546,0.027288839,55.4340619,[-0.16296296296296298],[-0.47129629629629627],[1],[0],[0],[3.432189453393221],['target'],MUSKANTUTORIAL3FINAL,1,2023-09-26_04h40.21.309,tutorial3_muskanjain_au2120087,2023.1.3,60.09882914
3,0,3,0,10,57.92089747,57.92089747,0.050196799,58.93108501,[0.2712962962962963],[-0.44351851851851853],[1],[0],[0],[2.377309551462531],['target'],MUSKANTUTORIAL3FINAL,1,2023-09-26_04h40.21.309,tutorial3_muskanjain_au2120087,2023.1.3,60.09882914
4,0,4,0,5,60.32301231,60.32301231,0.02740973,61.32897764,[-0.4083333333333333],[0.20833333333333334],[1],[0],[0],[1.7501595560461283],[],MUSKANTUTORIAL3FINAL,1,2023-09-26_04h40.21.309,tutorial3_muskanjain_au2120087,2023.1.3,60.09882914
5,0,5,0,10,62.13507665,62.13507665,0.050857244,63.14402863,[0.007407407407407408],[0.40185185185185185],[1],[0],[0],[2.759170649573207],['target'],MUSKANTUTORIAL3FINAL,1,2023-09-26_04h40.21.309,tutorial3_muskanjain_au2120087,2023.1.3,60.09882914
6,0,6,0,10,64.94780587,64.94780587,0.048750581,65.9582783,[-0.2574074074074074],[0.4398148148148148],[1],[0],[0],[3.69432676397264],['target'],MUSKANTUTORIAL3FINAL,1,2023-09-26_04h40.21.309,tutorial3_muskanjain_au2120087,2023.1.3,60.09882914
7,0,7,0,5,68.66536193,68.66536193,0.02648662,69.67174681,[-0.2111111111111111],[-0.25555555555555554],[1],[0],[0],[2.267575079575181],['target'],MUSKANTUTORIAL3FINAL,1,2023-09-26_04h40.21.309,tutorial3_muskanjain_au2120087,2023.1.3,60.09882914
8,0,8,0,10,70.99462134,70.99462134,0.051106576,72.00293688,[-0.39444444444444443],[-0.21574074074074073],[1],[0],[0],[3.624406000599265],['target'],MUSKANTUTORIAL3FINAL,1,2023-09-26_04h40.21.309,tutorial3_muskanjain_au2120087,2023.1.3,60.09882914
9,0,9,0,10,74.67436413,74.67436413,0.051299019,75.68299656,[0.32592592592592595],[-0.06111111111111111],[1],[0],[0],[2.8923646360635757],['target'],MUSKANTUTORIAL3FINAL,1,2023-09-26_04h40.21.309,tutorial3_muskanjain_au2120087,2023.1.3,60.09882914
10,0,10,0,5,77.59002917,77.59002917,0.026296398,78.59715316,[0.09537037037037037],[-0.23055555555555557],[1],[0],[0],[1.6847614496946335],['target'],MUSKANTUTORIAL3FINAL,1,2023-09-26_04h40.21.309,tutorial3_muskanjain_au2120087,2023.1.3,60.09882914
11,0,11,0,5,79.30420301,79.30420301,0.024613732,80.31237278,[0.022222222222222223],[-0.4185185185185185],[1],[0],[0],[2.602768262848258],['target'],MUSKANTUTORIAL3FINAL,1,2023-09-26_04h40.21.309,tutorial3_muskanjain_au2120087,2023.1.3,60.09882914
12,0,12,0,10,81.96453517,81.96453517,0.048653692,82.97673426,[-0.08055555555555556],[0.2796296296296296],[1],[0],[0],[2.4783787056803703],['target'],MUSKANTUTORIAL3FINAL,1,2023-09-26_04h40.21.309,tutorial3_muskanjain_au2120087,2023.1.3,60.09882914
13,0,13,0,10,84.49544401,84.49544401,0.048053693,85.49662756,[-0.41388888888888886],[-0.39166666666666666],[1],[0],[0],[3.2620110902935266],['target'],MUSKANTUTORIAL3FINAL,1,2023-09-26_04h40.21.309,tutorial3_muskanjain_au2120087,2023.1.3,60.09882914
14,0,14,0,5,87.78223417,87.78223417,0.026979063,88.7883026,[-0.044444444444444446],[-0.14814814814814814],[1],[0],[0],[1.9836844746023417],['target'],MUSKANTUTORIAL3FINAL,1,2023-09-26_04h40.21.309,tutorial3_muskanjain_au2120087,2023.1.3,60.09882914
15,0,15,0,10,89.8272572,89.8272572,0.048633691,90.83648518,[0.45740740740740743],[0.028703703703703703],[1],[0],[0],[2.5603527799248695],['target'],MUSKANTUTORIAL3FINAL,1,2023-09-26_04h40.21.309,tutorial3_muskanjain_au2120087,2023.1.3,60.09882914
16,0,16,0,10,92.44192277,92.44192277,0.050656799,93.45087164,[0.05648148148148148],[0.262037037037037],[1],[0],[0],[1.4771902617067099],['target'],MUSKANTUTORIAL3FINAL,1,2023-09-26_04h40.21.309,tutorial3_muskanjain_au2120087,2023.1.3,60.09882914
17,0,17,0,5,93.94122055,93.94122055,0.024512401,94.94960631,[-0.4212962962962963],[-0.26296296296296295],[1],[0],[0],[1.9698924981057644],['target'],MUSKANTUTORIAL3FINAL,1,2023-09-26_04h40.21.309,tutorial3_muskanjain_au2120087,2023.1.3,60.09882914
18,0,18,0,10,95.97028583,95.97028583,0.04903058,96.98111914,[-0.22407407407407406],[-0.01574074074074074],[1],[0],[0],[1.8953530732542276],['target'],MUSKANTUTORIAL3FINAL,1,2023-09-26_04h40.21.309,tutorial3_muskanjain_au2120087,2023.1.3,60.09882914
19,0,19,0,5,97.88760376,97.88760376,0.024775067,98.89610685,[-0.33240740740740743],[0.3472222222222222],[1],[0],[0],[1.786250602453947],['target'],MUSKANTUTORIAL3FINAL,1,2023-09-26_04h40.21.309,tutorial3_muskanjain_au2120087,2023.1.3,60.09882914
20,0,20,0,10,99.73104581,99.73104581,0.047603028,100.7445351,[0.24166666666666667],[-0.43703703703703706],[1],[0],[0],[2.7957083638757467],['target'],MUSKANTUTORIAL3FINAL,1,2023-09-26_04h40.21.309,tutorial3_muskanjain_au2120087,2023.1.3,60.09882914
21,0,21,0,10,102.5806861,102.5806861,0.049683023,103.5920967,[0.1648148148148148],[0.2222222222222222],[1],[0],[0],[2.5774940829724073],['target'],MUSKANTUTORIAL3FINAL,1,2023-09-26_04h40.21.309,tutorial3_muskanjain_au2120087,2023.1.3,60.09882914
22,0,22,0,10,105.212493,105.212493,0.050488798,106.2230392,[-0.4305555555555556],[0.36203703703703705],[1],[0],[0],[2.044252810999751],['target'],MUSKANTUTORIAL3FINAL,1,2023-09-26_04h40.21.309,tutorial3_muskanjain_au2120087,2023.1.3,60.09882914
23,0,23,0,5,107.2798151,107.2798151,0.024297291,108.2879102,[0.4462962962962963],[-0.41944444444444445],[1],[0],[0],[3.6182517893612385],['target'],MUSKANTUTORIAL3FINAL,1,2023-09-26_04h40.21.309,tutorial3_muskanjain_au2120087,2023.1.3,60.09882914
24,0,24,0,10,110.9570596,110.9570596,0.048323024,111.9680089,[0.26851851851851855],[0.2861111111111111],[1],[0],[0],[2.1960125416517258],['target'],MUSKANTUTORIAL3FINAL,1,2023-09-26_04h40.21.309,tutorial3_muskanjain_au2120087,2023.1.3,60.09882914
25,0,25,0,10,113.2076085,113.2076085,0.051400797,114.2160498,[-0.09166666666666666],[-0.1685185185185185],[1],[0],[0],[3.0249617341905832],['target'],MUSKANTUTORIAL3FINAL,1,2023-09-26_04h40.21.309,tutorial3_muskanjain_au2120087,2023.1.3,60.09882914
26,0,26,0,5,116.2584227,116.2584227,0.02757195,,[-0.09259259259259259],[-0.1685185185185185],[1],[0],[0],[0.9171077031642199],[],MUSKANTUTORIAL3FINAL,1,2023-09-26_04h40.21.309,tutorial3_muskanjain_au2120087,2023.1.3,60.09882914
27,0,27,0,5,117.2036676,117.2036676,0.024473734,118.2126312,[0.12407407407407407],[-0.4166666666666667],[1],[0],[0],[1.954908523708582],['target'],MUSKANTUTORIAL3FINAL,1,2023-09-26_04h40.21.309,tutorial3_muskanjain_au2120087,2023.1.3,60.09882914
28,0,28,0,10,119.2189467,119.2189467,0.049543913,120.2274885,[-0.3296296296296296],[0.08981481481481482],[1],[0],[0],[3.408325495198369],['target'],MUSKANTUTORIAL3FINAL,1,2023-09-26_04h40.21.309,tutorial3_muskanjain_au2120087,2023.1.3,60.09882914
29,0,29,0,5,122.6494775,122.6494775,0.02498129,123.6577313,[-0.07777777777777778],[-0.412962962962963],[1],[0],[0],[1.985887136310339],['target'],MUSKANTUTORIAL3FINAL,1,2023-09-26_04h40.21.309,tutorial3_muskanjain_au2120087,2023.1.3,60.09882914
30,0,30,0,10,124.6993894,124.6993894,0.053220795,125.7059876,[-0.43796296296296294],[0.34629629629629627],[1],[0],[0],[2.956876965239644],['target'],MUSKANTUTORIAL3FINAL,1,2023-09-26_04h40.21.309,tutorial3_muskanjain_au2120087,2023.1.3,60.09882914
31,0,31,0,10,127.7100112,127.7100112,0.05125013,128.7200721,[-0.10925925925925926],[0.4546296296296296],[1],[0],[0],[1.9926226790994406],['target'],MUSKANTUTORIAL3FINAL,1,2023-09-26_04h40.21.309,tutorial3_muskanjain_au2120087,2023.1.3,60.09882914
32,0,32,0,5,129.7280894,129.7280894,0.026151953,130.7349814,[0.10462962962962963],[-0.007407407407407408],[1],[0],[0],[1.7352929152548313],['target'],MUSKANTUTORIAL3FINAL,1,2023-09-26_04h40.21.309,tutorial3_muskanjain_au2120087,2023.1.3,60.09882914
33,0,33,0,10,131.5241462,131.5241462,0.049872356,132.5333617,[-0.03981481481481482],[0.41203703703703703],[1],[0],[0],[2.277125284075737],['target'],MUSKANTUTORIAL3FINAL,1,2023-09-26_04h40.21.309,tutorial3_muskanjain_au2120087,2023.1.3,60.09882914
34,0,34,0,5,133.8235114,133.8235114,0.025902176,134.8314616,[-0.287962962962963],[-0.48703703703703705],[1],[0],[0],[3.017640858888626],['target'],MUSKANTUTORIAL3FINAL,1,2023-09-26_04h40.21.309,tutorial3_muskanjain_au2120087,2023.1.3,60.09882914
35,0,35,0,10,136.9044615,136.9044615,0.052005241,137.912029,[0.003703703703703704],[-0.4842592592592593],[1],[0],[0],[5.339337619021535],['target'],MUSKANTUTORIAL3FINAL,1,2023-09-26_04h40.21.309,tutorial3_muskanjain_au2120087,2023.1.3,60.09882914
36,0,36,0,5,142.2688546,142.2688546,0.028047061,143.274072,[-0.12037037037037036],[0.14907407407407408],[1],[0],[0],[1.8330842964351177],['target'],MUSKANTUTORIAL3FINAL,1,2023-09-26_04h40.21.309,tutorial3_muskanjain_au2120087,2023.1.3,60.09882914
37,0,37,0,5,144.1309189,144.1309189,0.024334179,145.1391358,[0.44722222222222224],[0.21666666666666667],[1],[0],[0],[2.2037227489054203],['target'],MUSKANTUTORIAL3FINAL,1,2023-09-26_04h40.21.309,tutorial3_muskanjain_au2120087,2023.1.3,60.09882914
38,0,38,0,5,146.3677065,146.3677065,0.027073285,147.3705936,[0.4101851851851852],[-0.3592592592592593],[1],[0],[0],[3.880659768357873],['target'],MUSKANTUTORIAL3FINAL,1,2023-09-26_04h40.21.309,tutorial3_muskanjain_au2120087,2023.1.3,60.09882914
39,0,39,0,10,150.307627,150.307627,0.050948799,151.3170008,[0.4638888888888889],[0.36203703703703705],[1],[0],[0],[3.375836221501231],['target'],MUSKANTUTORIAL3FINAL,1,2023-09-26_04h40.21.309,tutorial3_muskanjain_au2120087,2023.1.3,60.09882914
40,0,40,0,10,153.7411187,153.7411187,0.052847017,154.7472871,[0.21944444444444444],[0.5],[1],[0],[0],[4.222202271223068],['target'],MUSKANTUTORIAL3FINAL,1,2023-09-26_04h40.21.309,tutorial3_muskanjain_au2120087,2023.1.3,60.09882914
41,0,41,0,10,158.0190346,158.0190346,0.050703464,159.026868,[0.1398148148148148],[-0.29259259259259257],[1],[0],[0],[2.9930151235312223],['target'],MUSKANTUTORIAL3FINAL,1,2023-09-26_04h40.21.309,tutorial3_muskanjain_au2120087,2023.1.3,60.09882914
42,0,42,0,5,161.0371142,161.0371142,0.028766172,162.0408741,[0.4666666666666667],[-0.46296296296296297],[1],[0],[0],[3.4803675897419453],['target'],MUSKANTUTORIAL3FINAL,1,2023-09-26_04h40.21.309,tutorial3_muskanjain_au2120087,2023.1.3,60.09882914
43,0,43,0,10,164.5767039,164.5767039,0.049915023,165.5878945,[0.4564814814814815],[0.40555555555555556],[1],[0],[0],[2.794104365631938],['target'],MUSKANTUTORIAL3FINAL,1,2023-09-26_04h40.21.309,tutorial3_muskanjain_au2120087,2023.1.3,60.09882914
44,0,44,0,5,167.3967349,167.3967349,0.026838174,168.4020442,[0.3972222222222222],[-0.325],[1],[0],[0],[3.3495469335466623],['target'],MUSKANTUTORIAL3FINAL,1,2023-09-26_04h40.21.309,tutorial3_muskanjain_au2120087,2023.1.3,60.09882914
45,0,45,0,10,170.8078386,170.8078386,0.051822575,171.8157648,[-0.24444444444444444],[-0.37037037037037035],[1],[0],[0],[3.3408025056123734],['target'],MUSKANTUTORIAL3FINAL,1,2023-09-26_04h40.21.309,tutorial3_muskanjain_au2120087,2023.1.3,60.09882914
46,0,46,0,5,174.1712921,174.1712921,0.02531551,175.1794983,[0.11203703703703703],[0.38333333333333336],[1],[0],[0],[1.9363272227346897],['target'],MUSKANTUTORIAL3FINAL,1,2023-09-26_04h40.21.309,tutorial3_muskanjain_au2120087,2023.1.3,60.09882914
47,0,47,0,5,176.1368775,176.1368775,0.025334623,177.1444811,[-0.2851851851851852],[0.2675925925925926],[1],[0],[0],[3.9165934808552265],['target'],MUSKANTUTORIAL3FINAL,1,2023-09-26_04h40.21.309,tutorial3_muskanjain_au2120087,2023.1.3,60.09882914
48,0,48,0,5,180.0847159,180.0847159,0.026503952,181.0910754,[-0.3509259259259259],[0.19907407407407407],[1],[0],[0],[1.7349191382527351],['target'],MUSKANTUTORIAL3FINAL,1,2023-09-26_04h40.21.309,tutorial3_muskanjain_au2120087,2023.1.3,60.09882914
49,0,49,0,10,181.8809887,181.8809887,0.051095465,182.889406,[0.4601851851851852],[-0.4703703703703704],[1],[0],[0],[3.4751520436257124],['target'],MUSKANTUTORIAL3FINAL,1,2023-09-26_04h40.21.309,tutorial3_muskanjain_au2120087,2023.1.3,60.09882914
50,0,50,0,5,185.378546,185.378546,0.024619957,186.3863633,[-0.13333333333333333],[-0.2111111111111111],[1],[0],[0],[2.736109357327223],['target'],MUSKANTUTORIAL3FINAL,1,2023-09-26_04h40.21.309,tutorial3_muskanjain_au2120087,2023.1.3,60.09882914
51,0,51,0,5,188.1448171,188.1448171,0.026090175,189.1506517,[-0.4462962962962963],[-0.41574074074074074],[1],[0],[0],[2.566902546212077],['target'],MUSKANTUTORIAL3FINAL,1,2023-09-26_04h40.21.309,tutorial3_muskanjain_au2120087,2023.1.3,60.09882914
52,0,52,0,5,190.7406338,190.7406338,0.024993287,191.7483662,[-0.4046296296296296],[-0.40925925925925927],[1],[0],[0],[1.5865434017032385],['target'],MUSKANTUTORIAL3FINAL,1,2023-09-26_04h40.21.309,tutorial3_muskanjain_au2120087,2023.1.3,60.09882914
53,0,53,0,5,192.3570936,192.3570936,0.02603551,193.3636318,[0.06759259259259259],[0.27685185185185185],[1],[0],[0],[2.1180157903581858],['target'],MUSKANTUTORIAL3FINAL,1,2023-09-26_04h40.21.309,tutorial3_muskanjain_au2120087,2023.1.3,60.09882914
54,0,54,0,10,194.5359364,194.5359364,0.051667465,195.5449426,[-0.23425925925925925],[-0.30925925925925923],[1],[0],[0],[3.0759731978178024],['target'],MUSKANTUTORIAL3FINAL,1,2023-09-26_04h40.21.309,tutorial3_muskanjain_au2120087,2023.1.3,60.09882914
55,0,55,0,10,197.6672366,197.6672366,0.050163023,198.6756624,[-0.2611111111111111],[0.010185185185185186],[1],[0],[0],[1.676075242459774],['target'],MUSKANTUTORIAL3FINAL,1,2023-09-26_04h40.21.309,tutorial3_muskanjain_au2120087,2023.1.3,60.09882914
56,0,56,0,5,199.3655682,199.3655682,0.025188843,200.3743207,[-0.47129629629629627],[0.2222222222222222],[1],[0],[0],[1.6860654465854168],['target'],MUSKANTUTORIAL3FINAL,1,2023-09-26_04h40.21.309,tutorial3_muskanjain_au2120087,2023.1.3,60.09882914
57,0,57,0,10,201.1153816,201.1153816,0.052109241,202.12263,[0.4777777777777778],[0.23425925925925925],[1],[0],[0],[4.039833705872297],['target'],MUSKANTUTORIAL3FINAL,1,2023-09-26_04h40.21.309,tutorial3_muskanjain_au2120087,2023.1.3,60.09882914
58,0,58,0,10,205.2137254,205.2137254,0.052628795,206.2190587,[0.08796296296296297],[-0.0962962962962963],[1],[0],[0],[3.2569124326109886],['target'],MUSKANTUTORIAL3FINAL,1,2023-09-26_04h40.21.309,tutorial3_muskanjain_au2120087,2023.1.3,60.09882914
59,0,59,0,5,208.4914125,208.4914125,0.025473287,209.4995009,[0.35555555555555557],[0.4888888888888889],[1],[0],[0],[2.7515124417841434],['target'],MUSKANTUTORIAL3FINAL,1,2023-09-26_04h40.21.309,tutorial3_muskanjain_au2120087,2023.1.3,60.09882914
60,0,60,0,10,211.3797993,211.3797993,0.126965998,212.3803144,[0.04259259259259259],[-0.010185185185185186],[1],[0],[0],[2.2169173918664455],['target'],MUSKANTUTORIAL3FINAL,1,2023-09-26_04h40.21.309,tutorial3_muskanjain_au2120087,2023.1.3,60.09882914
61,0,61,0,5,213.6215322,213.6215322,0.025815511,214.6282509,[0.4685185185185185],[0.37962962962962965],[1],[0],[0],[2.6510188430547714],['target'],MUSKANTUTORIAL3FINAL,1,2023-09-26_04h40.21.309,tutorial3_muskanjain_au2120087,2023.1.3,60.09882914
62,0,62,0,5,216.3016644,216.3016644,0.025303511,217.3093532,[0.40370370370370373],[-0.46944444444444444],[1],[0],[0],[3.1350424271076918],['target'],MUSKANTUTORIAL3FINAL,1,2023-09-26_04h40.21.309,tutorial3_muskanjain_au2120087,2023.1.3,60.09882914
63,0,63,0,10,219.4986827,219.4986827,0.052467462,220.50656,[-0.3962962962962963],[0.24074074074074073],[1],[0],[0],[4.189396552741528],['target'],MUSKANTUTORIAL3FINAL,1,2023-09-26_04h40.21.309,tutorial3_muskanjain_au2120087,2023.1.3,60.09882914
64,0,64,0,5,223.7120725,223.7120725,0.025513733,224.7195343,[-0.041666666666666664],[-0.25092592592592594],[1],[0],[0],[3.217101391404867],['target'],MUSKANTUTORIAL3FINAL,1,2023-09-26_04h40.21.309,tutorial3_muskanjain_au2120087,2023.1.3,60.09882914
65,0,65,0,5,226.9585481,226.9585481,0.024720844,227.9666667,[-0.41388888888888886],[-0.4583333333333333],[1],[0],[0],[3.0860594026744366],['target'],MUSKANTUTORIAL3FINAL,1,2023-09-26_04h40.21.309,tutorial3_muskanjain_au2120087,2023.1.3,60.09882914
66,0,66,0,5,230.0758314,230.0758314,0.027802173,231.0807336,[-0.09722222222222222],[0.45],[1],[0],[0],[3.365019351243973],['target'],MUSKANTUTORIAL3FINAL,1,2023-09-26_04h40.21.309,tutorial3_muskanjain_au2120087,2023.1.3,60.09882914
67,0,67,0,10,233.506608,233.506608,0.05469368,234.5109573,[0.3425925925925926],[-0.017592592592592594],[1],[0],[0],[2.75539243593812],['target'],MUSKANTUTORIAL3FINAL,1,2023-09-26_04h40.21.309,tutorial3_muskanjain_au2120087,2023.1.3,60.09882914
68,0,68,0,5,236.2844968,236.2844968,0.025764398,237.2919368,[-0.25462962962962965],[-0.21388888888888888],[1],[0],[0],[2.5345310494303703],['target'],MUSKANTUTORIAL3FINAL,1,2023-09-26_04h40.21.309,tutorial3_muskanjain_au2120087,2023.1.3,60.09882914
69,0,69,0,5,238.8484523,238.8484523,0.025511956,239.8562674,[0.49166666666666664],[0.08148148148148149],[1],[0],[0],[3.3175403252243996],['target'],MUSKANTUTORIAL3FINAL,1,2023-09-26_04h40.21.309,tutorial3_muskanjain_au2120087,2023.1.3,60.09882914
70,0,70,0,5,242.1961801,242.1961801,0.025335955,243.2034885,[-0.19537037037037036],[0.42592592592592593],[1],[0],[0],[2.568283434957266],['target'],MUSKANTUTORIAL3FINAL,1,2023-09-26_04h40.21.309,tutorial3_muskanjain_au2120087,2023.1.3,60.09882914
71,0,71,0,5,244.7941946,244.7941946,0.025759954,245.801271,[-0.019444444444444445],[0.48703703703703705],[1],[0],[0],[1.552531462162733],['target'],MUSKANTUTORIAL3FINAL,1,2023-09-26_04h40.21.309,tutorial3_muskanjain_au2120087,2023.1.3,60.09882914
72,0,72,0,10,246.427565,246.427565,0.068047436,247.4360921,[-0.3138888888888889],[-0.3685185185185185],[1],[0],[0],[3.2737168464809656],['target'],MUSKANTUTORIAL3FINAL,1,2023-09-26_04h40.21.309,tutorial3_muskanjain_au2120087,2023.1.3,60.09882914
73,0,73,0,5,249.72864,249.72864,0.027880838,250.7301907,[-0.23703703703703705],[0.4564814814814815],[1],[0],[0],[4.833015406504273],['target'],MUSKANTUTORIAL3FINAL,1,2023-09-26_04h40.21.309,tutorial3_muskanjain_au2120087,2023.1.3,60.09882914
74,0,74,0,5,254.5920576,254.5920576,0.027815506,255.5953274,[-0.49444444444444446],[-0.2537037037037037],[1],[0],[0],[3.001463107764721],[],MUSKANTUTORIAL3FINAL,1,2023-09-26_04h40.21.309,tutorial3_muskanjain_au2120087,2023.1.3,60.09882914
75,0,75,0,10,257.6557708,257.6557708,0.05311724,258.6597059,[-0.4111111111111111],[-0.45925925925925926],[1],[0],[0],[4.117290459573269],['target'],MUSKANTUTORIAL3FINAL,1,2023-09-26_04h40.21.309,tutorial3_muskanjain_au2120087,2023.1.3,60.09882914
76,0,76,0,5,261.795127,261.795127,0.024351513,262.8040786,[-0.36944444444444446],[0.3055555555555556],[1],[0],[0],[2.1863312236964703],['target'],MUSKANTUTORIAL3FINAL,1,2023-09-26_04h40.21.309,tutorial3_muskanjain_au2120087,2023.1.3,60.09882914
77,0,77,0,10,264.0419813,264.0419813,0.05037991,265.051023,[0.010185185185185186],[-0.23703703703703705],[1],[0],[0],[2.9097752701491117],['target'],MUSKANTUTORIAL3FINAL,1,2023-09-26_04h40.21.309,tutorial3_muskanjain_au2120087,2023.1.3,60.09882914
78,0,78,0,10,267.007524,267.007524,0.051233687,268.015132,[0.32222222222222224],[-0.1287037037037037],[1],[0],[0],[2.2589173167943954],['target'],MUSKANTUTORIAL3FINAL,1,2023-09-26_04h40.21.309,tutorial3_muskanjain_au2120087,2023.1.3,60.09882914
79,0,79,0,5,269.291051,269.291051,0.026921285,270.2964319,[-0.14351851851851852],[0.19537037037037036],[1],[0],[0],[2.1167491264641285],['target'],MUSKANTUTORIAL3FINAL,1,2023-09-26_04h40.21.309,tutorial3_muskanjain_au2120087,2023.1.3,60.09882914
80,0,80,0,10,271.4697747,271.4697747,0.052734129,272.4779169,[-0.16203703703703703],[-0.28055555555555556],[1],[0],[0],[3.323334092274308],['target'],MUSKANTUTORIAL3FINAL,1,2023-09-26_04h40.21.309,tutorial3_muskanjain_au2120087,2023.1.3,60.09882914
81,0,81,0,10,274.8496443,274.8496443,0.051160797,275.8581816,[-0.1814814814814815],[0.4046296296296296],[1],[0],[0],[1.926248574629426],['target'],MUSKANTUTORIAL3FINAL,1,2023-09-26_04h40.21.309,tutorial3_muskanjain_au2120087,2023.1.3,60.09882914
82,0,82,0,10,276.8305741,276.8305741,0.050881686,277.8400203,[-0.022222222222222223],[0.19166666666666668],[1],[0],[0],[1.9103477150201797],['target'],MUSKANTUTORIAL3FINAL,1,2023-09-26_04h40.21.309,tutorial3_muskanjain_au2120087,2023.1.3,60.09882914
83,0,83,0,10,278.801603,278.801603,0.053233238,279.8047666,[-0.19074074074074074],[0.35],[1],[0],[0],[2.6909694373607635],['target'],MUSKANTUTORIAL3FINAL,1,2023-09-26_04h40.21.309,tutorial3_muskanjain_au2120087,2023.1.3,60.09882914
84,0,84,0,5,281.5134915,281.5134915,0.025973288,282.5190773,[0.07407407407407407],[-0.1712962962962963],[1],[0],[0],[2.616588681936264],['target'],MUSKANTUTORIAL3FINAL,1,2023-09-26_04h40.21.309,tutorial3_muskanjain_au2120087,2023.1.3,60.09882914
85,0,85,0,5,284.1588846,284.1588846,0.024683956,285.1667028,[0.3490740740740741],[-0.06111111111111111],[1],[0],[0],[2.435868114233017],['target'],MUSKANTUTORIAL3FINAL,1,2023-09-26_04h40.21.309,tutorial3_muskanjain_au2120087,2023.1.3,60.09882914
86,0,86,0,10,286.6574282,286.6574282,0.052163018,287.6648259,[-0.36018518518518516],[-0.26481481481481484],[1],[0],[0],[3.174436578527093],['target'],MUSKANTUTORIAL3FINAL,1,2023-09-26_04h40.21.309,tutorial3_muskanjain_au2120087,2023.1.3,60.09882914
87,0,87,0,5,289.8566665,289.8566665,0.027076842,290.8619287,[-0.08796296296296297],[-0.2222222222222222],[1],[0],[0],[2.3171945475041866],['target'],MUSKANTUTORIAL3FINAL,1,2023-09-26_04h40.21.309,tutorial3_muskanjain_au2120087,2023.1.3,60.09882914
88,0,88,0,10,292.2353338,292.2353338,0.051782129,293.2430151,[-0.16111111111111112],[0.13425925925925927],[1],[0],[0],[1.8591144736856222],['target'],MUSKANTUTORIAL3FINAL,1,2023-09-26_04h40.21.309,tutorial3_muskanjain_au2120087,2023.1.3,60.09882914
89,0,89,0,10,294.1490935,294.1490935,0.051478574,295.1580051,[-0.37592592592592594],[0.09074074074074075],[1],[0],[0],[2.359641581773758],['target'],MUSKANTUTORIAL3FINAL,1,2023-09-26_04h40.21.309,tutorial3_muskanjain_au2120087,2023.1.3,60.09882914
90,0,90,0,5,296.5332924,296.5332924,0.026566619,297.5392862,[0.08611111111111111],[0.31574074074074077],[1],[0],[0],[1.783603496849537],['target'],MUSKANTUTORIAL3FINAL,1,2023-09-26_04h40.21.309,tutorial3_muskanjain_au2120087,2023.1.3,60.09882914
91,0,91,0,10,298.3810153,298.3810153,0.05141413,299.387622,[-0.032407407407407406],[-0.003703703703703704],[1],[0],[0],[2.09258783608675],['target'],MUSKANTUTORIAL3FINAL,1,2023-09-26_04h40.21.309,tutorial3_muskanjain_au2120087,2023.1.3,60.09882914
92,0,92,0,5,300.4972351,300.4972351,0.027639061,301.5025142,[0.05185185185185185],[0.4462962962962963],[1],[0],[0],[1.9503756444901228],['target'],MUSKANTUTORIAL3FINAL,1,2023-09-26_04h40.21.309,tutorial3_muskanjain_au2120087,2023.1.3,60.09882914
93,0,93,0,5,302.4802507,302.4802507,0.026737731,303.4840867,[-0.03425925925925926],[-0.000925925925925926],[1],[0],[0],[2.084636738523841],['target'],MUSKANTUTORIAL3FINAL,1,2023-09-26_04h40.21.309,tutorial3_muskanjain_au2120087,2023.1.3,60.09882914
94,0,94,0,10,304.625662,304.625662,0.051578131,305.6321322,[0.32592592592592595],[0.2777777777777778],[1],[0],[0],[2.5573772322386503],['target'],MUSKANTUTORIAL3FINAL,1,2023-09-26_04h40.21.309,tutorial3_muskanjain_au2120087,2023.1.3,60.09882914
95,0,95,0,5,307.2057685,307.2057685,0.025551066,308.2133396,[0.28703703703703703],[0.27685185185185185],[1],[0],[0],[1.4688902758061886],['target'],MUSKANTUTORIAL3FINAL,1,2023-09-26_04h40.21.309,tutorial3_muskanjain_au2120087,2023.1.3,60.09882914
96,0,96,0,5,308.7059325,308.7059325,0.026795952,309.7119232,[0.30092592592592593],[-0.18981481481481483],[1],[0],[0],[3.0164199713617563],['target'],MUSKANTUTORIAL3FINAL,1,2023-09-26_04h40.21.309,tutorial3_muskanjain_au2120087,2023.1.3,60.09882914
97,0,97,0,5,311.7540969,311.7540969,0.027382173,312.7593471,[-0.48518518518518516],[-0.024074074074074074],[1],[0],[0],[1.776997284963727],['target'],MUSKANTUTORIAL3FINAL,1,2023-09-26_04h40.21.309,tutorial3_muskanjain_au2120087,2023.1.3,60.09882914
98,0,98,0,10,313.6169002,313.6169002,0.072315872,314.6243171,[0.45925925925925926],[0.05462962962962963],[1],[0],[0],[3.2575973197817802],['target'],MUSKANTUTORIAL3FINAL,1,2023-09-26_04h40.21.309,tutorial3_muskanjain_au2120087,2023.1.3,60.09882914
99,0,99,0,5,316.896966,316.896966,0.024703512,317.9049313,[-0.2722222222222222],[0.05092592592592592],[1],[0],[0],[2.619053564965725],['target'],MUSKANTUTORIAL3FINAL,1,2023-09-26_04h40.21.309,tutorial3_muskanjain_au2120087,2023.1.3,60.09882914
100,0,100,0,10,319.5766381,319.5766381,0.050556799,320.5860078,[0.3814814814814815],[0.21574074074074073],[1],[0],[0],[3.1256784424185753],['target'],MUSKANTUTORIAL3FINAL,1,2023-09-26_04h40.21.309,tutorial3_muskanjain_au2120087,2023.1.3,60.09882914
101,0,101,0,5,322.725252,322.725252,0.025565732,323.7331849,[-0.39444444444444443],[0.44722222222222224],[1],[0],[0],[2.6846414506435394],['target'],MUSKANTUTORIAL3FINAL,1,2023-09-26_04h40.21.309,tutorial3_muskanjain_au2120087,2023.1.3,60.09882914
102,0,102,0,10,325.473208,325.473208,0.051797241,326.4806471,[0.31296296296296294],[0.1388888888888889],[1],[0],[0],[2.108925584703684],['target'],MUSKANTUTORIAL3FINAL,1,2023-09-26_04h40.21.309,tutorial3_muskanjain_au2120087,2023.1.3,60.09882914
103,0,103,0,10,327.637254,327.637254,0.052970128,328.6454042,[0.2],[0.262037037037037],[1],[0],[0],[1.5247621778398752],['target'],MUSKANTUTORIAL3FINAL,1,2023-09-26_04h40.21.309,tutorial3_muskanjain_au2120087,2023.1.3,60.09882914
104,0,104,0,10,329.2178689,329.2178689,0.051821684,330.227388,[0.1287037037037037],[-0.1527777777777778],[1],[0],[0],[2.725379154086113],['target'],MUSKANTUTORIAL3FINAL,1,2023-09-26_04h40.21.309,tutorial3_muskanjain_au2120087,2023.1.3,60.09882914
105,0,105,0,10,332.0009,332.0009,0.051401686,333.0082551,[0.3138888888888889],[-0.3888888888888889],[1],[0],[0],[1.609689138829708],['target'],MUSKANTUTORIAL3FINAL,1,2023-09-26_04h40.21.309,tutorial3_muskanjain_au2120087,2023.1.3,60.09882914
106,0,106,0,10,333.6671588,333.6671588,0.052645683,334.6734828,[-0.4638888888888889],[-0.3333333333333333],[1],[0],[0],[3.506643543019891],['target'],MUSKANTUTORIAL3FINAL,1,2023-09-26_04h40.21.309,tutorial3_muskanjain_au2120087,2023.1.3,60.09882914
107,0,107,0,5,337.1955761,337.1955761,0.025228398,338.2037796,[-0.16944444444444445],[-0.16111111111111112],[1],[0],[0],[2.469133388251066],['target'],MUSKANTUTORIAL3FINAL,1,2023-09-26_04h40.21.309,tutorial3_muskanjain_au2120087,2023.1.3,60.09882914
108,0,108,0,10,339.7253956,339.7253956,0.049207024,340.734808,[-0.4027777777777778],[0.4546296296296296],[1],[0],[0],[2.5272683948278427],['target'],MUSKANTUTORIAL3FINAL,1,2023-09-26_04h40.21.309,tutorial3_muskanjain_au2120087,2023.1.3,60.09882914
109,0,109,0,10,342.3064217,342.3064217,0.049858578,343.315899,[-0.24166666666666667],[-0.08333333333333333],[1],[0],[0],[2.160770380869508],['target'],MUSKANTUTORIAL3FINAL,1,2023-09-26_04h40.21.309,tutorial3_muskanjain_au2120087,2023.1.3,60.09882914
110,0,110,0,10,344.5251702,344.5251702,0.052834574,345.5306959,[-0.15462962962962962],[-0.08518518518518518],[1],[0],[0],[1.657961942255497],['target'],MUSKANTUTORIAL3FINAL,1,2023-09-26_04h40.21.309,tutorial3_muskanjain_au2120087,2023.1.3,60.09882914
111,0,111,0,10,346.23558,346.23558,0.050017243,347.2458169,[0.037037037037037035],[-0.32037037037037036],[1],[0],[0],[1.8937126342207193],['target'],MUSKANTUTORIAL3FINAL,1,2023-09-26_04h40.21.309,tutorial3_muskanjain_au2120087,2023.1.3,60.09882914
112,0,112,0,10,348.182097,348.182097,0.048956802,349.1941063,[0.44537037037037036],[-0.025925925925925925],[1],[0],[0],[2.6115078013390303],['target'],MUSKANTUTORIAL3FINAL,1,2023-09-26_04h40.21.309,tutorial3_muskanjain_au2120087,2023.1.3,60.09882914
113,0,113,0,10,350.8497687,350.8497687,0.050597688,351.8585265,[-0.08611111111111111],[0.37592592592592594],[1],[0],[0],[1.8610335811972618],['target'],MUSKANTUTORIAL3FINAL,1,2023-09-26_04h40.21.309,tutorial3_muskanjain_au2120087,2023.1.3,60.09882914
114,0,114,0,10,352.7670933,352.7670933,0.053526128,353.7734955,[0.41203703703703703],[-0.42407407407407405],[1],[0],[0],[3.888402421027422],['target'],MUSKANTUTORIAL3FINAL,1,2023-09-26_04h40.21.309,tutorial3_muskanjain_au2120087,2023.1.3,60.09882914
115,0,115,0,5,356.6822446,356.6822446,0.028738171,357.6867921,[0.06018518518518518],[-0.10462962962962963],[1],[0],[0],[2.5817336328327656],['target'],MUSKANTUTORIAL3FINAL,1,2023-09-26_04h40.21.309,tutorial3_muskanjain_au2120087,2023.1.3,60.09882914
116,0,116,0,10,359.3254972,359.3254972,0.049603024,360.3345905,[0.07962962962962963],[0.24259259259259258],[1],[0],[0],[3.1266504414379597],['target'],MUSKANTUTORIAL3FINAL,1,2023-09-26_04h40.21.309,tutorial3_muskanjain_au2120087,2023.1.3,60.09882914
117,0,117,0,5,362.4737832,362.4737832,0.024237733,363.4816614,[-0.262037037037037],[-0.4759259259259259],[1],[0],[0],[3.5527043491601944],['target'],MUSKANTUTORIAL3FINAL,1,2023-09-26_04h40.21.309,tutorial3_muskanjain_au2120087,2023.1.3,60.09882914
118,0,118,0,10,366.0873296,366.0873296,0.051835462,367.0952012,[0.041666666666666664],[-0.2638888888888889],[1],[0],[0],[2.6576926093548536],['target'],MUSKANTUTORIAL3FINAL,1,2023-09-26_04h40.21.309,tutorial3_muskanjain_au2120087,2023.1.3,60.09882914
119,0,119,0,10,368.7996075,368.7996075,0.050849242,369.8050488,[-0.512962962962963],[-0.21851851851851853],[1],[0],[0],[2.5767109747976065],[],MUSKANTUTORIAL3FINAL,1,2023-09-26_04h40.21.309,tutorial3_muskanjain_au2120087,2023.1.3,60.09882914
120,0,120,0,10,371.4332517,371.4332517,0.051186131,372.4415388,[-0.25092592592592594],[0.14629629629629629],[1],[0],[0],[2.0088799837976694],['target'],MUSKANTUTORIAL3FINAL,1,2023-09-26_04h40.21.309,tutorial3_muskanjain_au2120087,2023.1.3,60.09882914
121,0,121,0,10,373.4975644,373.4975644,0.052318573,374.5053604,[-0.3],[-0.2962962962962963],[1],[0],[0],[1.8588411398231983],['target'],MUSKANTUTORIAL3FINAL,1,2023-09-26_04h40.21.309,tutorial3_muskanjain_au2120087,2023.1.3,60.09882914
122,0,122,0,10,375.4124322,375.4124322,0.05157724,376.4203908,[0.11481481481481481],[-0.2935185185185185],[1],[0],[0],[1.6931014340370893],['target'],MUSKANTUTORIAL3FINAL,1,2023-09-26_04h40.21.309,tutorial3_muskanjain_au2120087,2023.1.3,60.09882914
123,0,123,0,10,377.1642584,377.1642584,0.05517057,378.168829,[0.3675925925925926],[0.001851851851851852],[1],[0],[0],[3.820379873737693],['target'],MUSKANTUTORIAL3FINAL,1,2023-09-26_04h40.21.309,tutorial3_muskanjain_au2120087,2023.1.3,60.09882914
124,0,124,0,10,381.0416053,381.0416053,0.052812351,382.0487519,[0.07314814814814814],[0.4842592592592593],[1],[0],[0],[3.224012490361929],['target'],MUSKANTUTORIAL3FINAL,1,2023-09-26_04h40.21.309,tutorial3_muskanjain_au2120087,2023.1.3,60.09882914
125,0,125,0,10,384.320935,384.320935,0.050708355,385.3293087,[0.5009259259259259],[-0.025925925925925925],[1],[0],[0],[3.858415363356471],['target'],MUSKANTUTORIAL3FINAL,1,2023-09-26_04h40.21.309,tutorial3_muskanjain_au2120087,2023.1.3,60.09882914
126,0,126,0,5,388.2018481,388.2018481,0.025992397,389.2092018,[-0.040740740740740744],[-0.3527777777777778],[1],[0],[0],[1.9012139532715082],['target'],MUSKANTUTORIAL3FINAL,1,2023-09-26_04h40.21.309,tutorial3_muskanjain_au2120087,2023.1.3,60.09882914
127,0,127,0,10,390.1670193,390.1670193,0.05085991,391.1741841,[0.046296296296296294],[-0.30648148148148147],[1],[0],[0],[2.45810229703784],['target'],MUSKANTUTORIAL3FINAL,1,2023-09-26_04h40.21.309,tutorial3_muskanjain_au2120087,2023.1.3,60.09882914
128,0,128,0,5,392.6499762,392.6499762,0.027248396,393.6553673,[-0.33055555555555555],[0.36944444444444446],[1],[0],[0],[2.998992446810007],['target'],MUSKANTUTORIAL3FINAL,1,2023-09-26_04h40.21.309,tutorial3_muskanjain_au2120087,2023.1.3,60.09882914
129,0,129,0,10,395.7137592,395.7137592,0.054548347,396.7192214,[-0.25833333333333336],[0.13518518518518519],[1],[0],[0],[1.5404341518878937],['target'],MUSKANTUTORIAL3FINAL,1,2023-09-26_04h40.21.309,tutorial3_muskanjain_au2120087,2023.1.3,60.09882914
130,0,130,0,10,397.3102146,397.3102146,0.051301686,398.3178879,[-0.18333333333333332],[-0.21574074074074073],[1],[0],[0],[2.5423892568796873],['target'],MUSKANTUTORIAL3FINAL,1,2023-09-26_04h40.21.309,tutorial3_muskanjain_au2120087,2023.1.3,60.09882914
131,0,131,0,5,399.878298,399.878298,0.028116839,400.8822949,[0.28703703703703703],[-0.3074074074074074],[1],[0],[0],[2.8483976032584906],['target'],MUSKANTUTORIAL3FINAL,1,2023-09-26_04h40.21.309,tutorial3_muskanjain_au2120087,2023.1.3,60.09882914
132,0,132,0,10,402.791991,402.791991,0.053763904,403.796423,[-0.41388888888888886],[0.25555555555555554],[1],[0],[0],[2.6223064493387938],['target'],MUSKANTUTORIAL3FINAL,1,2023-09-26_04h40.21.309,tutorial3_muskanjain_au2120087,2023.1.3,60.09882914
133,0,133,0,5,405.4379854,405.4379854,0.027662618,406.4441677,[-0.3527777777777778],[-0.4666666666666667],[1],[0],[0],[3.7652488611638546],['target'],MUSKANTUTORIAL3FINAL,1,2023-09-26_04h40.21.309,tutorial3_muskanjain_au2120087,2023.1.3,60.09882914
134,0,134,0,5,409.2343227,409.2343227,0.026800396,410.2408662,[0.47962962962962963],[0.2111111111111111],[1],[0],[0],[2.283606607466936],['target'],MUSKANTUTORIAL3FINAL,1,2023-09-26_04h40.21.309,tutorial3_muskanjain_au2120087,2023.1.3,60.09882914
135,0,135,0,5,411.5485897,411.5485897,0.02489729,412.555511,[-0.14444444444444443],[-0.2722222222222222],[1],[0],[0],[2.585085181519389],['target'],MUSKANTUTORIAL3FINAL,1,2023-09-26_04h40.21.309,tutorial3_muskanjain_au2120087,2023.1.3,60.09882914
136,0,136,0,10,414.1945303,414.1945303,0.051043909,415.2031348,[0.4638888888888889],[-0.4462962962962963],[1],[0],[0],[4.141491748392582],['target'],MUSKANTUTORIAL3FINAL,1,2023-09-26_04h40.21.309,tutorial3_muskanjain_au2120087,2023.1.3,60.09882914
137,0,137,0,10,418.3881215,418.3881215,0.048719024,419.3994828,[-0.34074074074074073],[-0.3574074074074074],[1],[0],[0],[2.744553342461586],['target'],MUSKANTUTORIAL3FINAL,1,2023-09-26_04h40.21.309,tutorial3_muskanjain_au2120087,2023.1.3,60.09882914
138,0,138,0,5,421.1578771,421.1578771,0.027628839,422.1637135,[-0.40925925925925927],[-0.37777777777777777],[1],[0],[0],[3.732053365558386],['target'],MUSKANTUTORIAL3FINAL,1,2023-09-26_04h40.21.309,tutorial3_muskanjain_au2120087,2023.1.3,60.09882914
139,0,139,0,5,424.919293,424.919293,0.024852846,425.9272881,[-0.45555555555555555],[0.18796296296296297],[1],[0],[0],[4.483653808012605],['target'],MUSKANTUTORIAL3FINAL,1,2023-09-26_04h40.21.309,tutorial3_muskanjain_au2120087,2023.1.3,60.09882914
140,0,140,0,10,429.4625867,429.4625867,0.0500808,430.4731138,[-0.028703703703703703],[-0.11851851851851852],[1],[0],[0],[2.7606942038983107],['target'],MUSKANTUTORIAL3FINAL,1,2023-09-26_04h40.21.309,tutorial3_muskanjain_au2120087,2023.1.3,60.09882914
141,0,141,0,10,432.2799262,432.2799262,0.052227907,433.2873195,[-0.41388888888888886],[0.11666666666666667],[1],[0],[0],[2.291333260014653],['target'],MUSKANTUTORIAL3FINAL,1,2023-09-26_04h40.21.309,tutorial3_muskanjain_au2120087,2023.1.3,60.09882914
142,0,142,0,5,434.5968634,434.5968634,0.027869727,435.6020287,[0.3212962962962963],[-0.08425925925925926],[1],[0],[0],[2.7325889207422733],['target'],MUSKANTUTORIAL3FINAL,1,2023-09-26_04h40.21.309,tutorial3_muskanjain_au2120087,2023.1.3,60.09882914
143,0,143,0,5,437.3655811,437.3655811,0.031894166,438.366234,[0.38425925925925924],[-0.12314814814814815],[1],[0],[0],[1.7622946444898844],['target'],MUSKANTUTORIAL3FINAL,1,2023-09-26_04h40.21.309,tutorial3_muskanjain_au2120087,2023.1.3,60.09882914
144,0,144,0,10,439.1936854,439.1936854,0.052365685,440.1979974,[0.022222222222222223],[-0.07407407407407407],[1],[0],[0],[2.4411236606538296],['target'],MUSKANTUTORIAL3FINAL,1,2023-09-26_04h40.21.309,tutorial3_muskanjain_au2120087,2023.1.3,60.09882914
145,0,145,0,10,441.6875263,441.6875263,0.050522134,442.6957805,[-0.003703703703703704],[0.20185185185185187],[1],[0],[0],[2.426794797182083],['target'],MUSKANTUTORIAL3FINAL,1,2023-09-26_04h40.21.309,tutorial3_muskanjain_au2120087,2023.1.3,60.09882914
146,0,146,0,5,444.138822,444.138822,0.028235951,445.1436829,[-0.45925925925925926],[-0.41574074074074074],[1],[0],[0],[3.347974492236972],['target'],MUSKANTUTORIAL3FINAL,1,2023-09-26_04h40.21.309,tutorial3_muskanjain_au2120087,2023.1.3,60.09882914
147,0,147,0,10,447.5469039,447.5469039,0.049211023,448.5573915,[0.24814814814814815],[0.4685185185185185],[1],[0],[0],[4.6426130793988705],['target'],MUSKANTUTORIAL3FINAL,1,2023-09-26_04h40.21.309,tutorial3_muskanjain_au2120087,2023.1.3,60.09882914
148,0,148,0,10,452.2437067,452.2437067,0.049535912,453.2533102,[-0.3055555555555556],[0.12407407407407407],[1],[0],[0],[2.8110385574400425],['target'],MUSKANTUTORIAL3FINAL,1,2023-09-26_04h40.21.309,tutorial3_muskanjain_au2120087,2023.1.3,60.09882914
149,0,149,0,10,455.1102669,455.1102669,0.054015903,456.1162393,[-0.046296296296296294],[-0.11018518518518519],[1],[0],[0],[2.2234791591763496],['target'],MUSKANTUTORIAL3FINAL,1,2023-09-26_04h40.21.309,tutorial3_muskanjain_au2120087,2023.1.3,60.09882914
150,0,150,0,10,457.3918829,457.3918829,0.052880796,458.3987362,[-0.16666666666666666],[0.44814814814814813],[1],[0],[0],[2.441267214715481],['target'],MUSKANTUTORIAL3FINAL,1,2023-09-26_04h40.21.309,tutorial3_muskanjain_au2120087,2023.1.3,60.09882914
151,0,151,0,10,459.8885406,459.8885406,0.051746132,460.8965984,[-0.03796296296296296],[-0.15648148148148147],[1],[0],[0],[2.574778089299798],['target'],MUSKANTUTORIAL3FINAL,1,2023-09-26_04h40.21.309,tutorial3_muskanjain_au2120087,2023.1.3,60.09882914
152,0,152,0,10,462.5371399,462.5371399,0.060950115,463.5442115,[-0.10555555555555556],[0.4],[1],[0],[0],[2.699482312425971],['target'],MUSKANTUTORIAL3FINAL,1,2023-09-26_04h40.21.309,tutorial3_muskanjain_au2120087,2023.1.3,60.09882914
153,0,153,0,10,465.2829866,465.2829866,0.049920356,466.2918728,[0.041666666666666664],[-0.15462962962962962],[1],[0],[0],[2.576986974105239],['target'],MUSKANTUTORIAL3FINAL,1,2023-09-26_04h40.21.309,tutorial3_muskanjain_au2120087,2023.1.3,60.09882914
154,0,154,0,5,467.8847247,467.8847247,0.026606176,468.8896278,[-0.40925925925925927],[-0.24166666666666667],[1],[0],[0],[2.333910960704088],['target'],MUSKANTUTORIAL3FINAL,1,2023-09-26_04h40.21.309,tutorial3_muskanjain_au2120087,2023.1.3,60.09882914
155,0,155,0,10,470.2794155,470.2794155,0.051134575,471.2874448,[0.053703703703703705],[-0.32407407407407407],[1],[0],[0],[2.0109982024878263],['target'],MUSKANTUTORIAL3FINAL,1,2023-09-26_04h40.21.309,tutorial3_muskanjain_au2120087,2023.1.3,60.09882914
156,0,156,0,10,472.3446874,472.3446874,0.050383465,473.3523274,[0.2722222222222222],[0.14074074074074075],[1],[0],[0],[1.8428256139159203],['target'],MUSKANTUTORIAL3FINAL,1,2023-09-26_04h40.21.309,tutorial3_muskanjain_au2120087,2023.1.3,60.09882914
157,0,157,0,5,474.2124023,474.2124023,0.027701285,475.2174267,[-0.16203703703703703],[-0.26851851851851855],[1],[0],[0],[1.6165429037064314],['target'],MUSKANTUTORIAL3FINAL,1,2023-09-26_04h40.21.309,tutorial3_muskanjain_au2120087,2023.1.3,60.09882914
158,0,158,0,5,475.8603122,475.8603122,0.026669731,476.8659882,[0.44814814814814813],[0.07407407407407407],[1],[0],[0],[2.3173487689346075],['target'],MUSKANTUTORIAL3FINAL,1,2023-09-26_04h40.21.309,tutorial3_muskanjain_au2120087,2023.1.3,60.09882914
159,0,159,0,10,478.2397565,478.2397565,0.051203465,479.2472067,[0.10925925925925926],[0.43703703703703706],[1],[0],[0],[2.209108518436551],['target'],MUSKANTUTORIAL3FINAL,1,2023-09-26_04h40.21.309,tutorial3_muskanjain_au2120087,2023.1.3,60.09882914
160,0,160,0,5,480.4723076,480.4723076,0.02616173,481.4786823,[0.08703703703703704],[-0.1925925925925926],[1],[0],[0],[1.8014972414821386],['target'],MUSKANTUTORIAL3FINAL,1,2023-09-26_04h40.21.309,tutorial3_muskanjain_au2120087,2023.1.3,60.09882914
161,0,161,0,10,482.3365736,482.3365736,0.05245813,483.3436114,[0.41574074074074074],[0.32037037037037036],[1],[0],[0],[3.107788696885109],['target'],MUSKANTUTORIAL3FINAL,1,2023-09-26_04h40.21.309,tutorial3_muskanjain_au2120087,2023.1.3,60.09882914
162,0,162,0,5,485.4680978,485.4680978,0.026319064,486.4741969,[0.10833333333333334],[0.3435185185185185],[1],[0],[0],[2.3505495991557837],['target'],MUSKANTUTORIAL3FINAL,1,2023-09-26_04h40.21.309,tutorial3_muskanjain_au2120087,2023.1.3,60.09882914
163,0,163,0,10,487.8819393,487.8819393,0.051864797,488.8887304,[0.4083333333333333],[-0.4666666666666667],[1],[0],[0],[3.1253397781401873],['target'],MUSKANTUTORIAL3FINAL,1,2023-09-26_04h40.21.309,tutorial3_muskanjain_au2120087,2023.1.3,60.09882914
164,0,164,0,5,491.0296919,491.0296919,0.025957732,492.0360622,[-0.34074074074074073],[0.4222222222222222],[1],[0],[0],[3.2002276442945004],['target'],MUSKANTUTORIAL3FINAL,1,2023-09-26_04h40.21.309,tutorial3_muskanjain_au2120087,2023.1.3,60.09882914
165,0,165,0,10,494.2950759,494.2950759,0.056002123,495.2998119,[0.3148148148148148],[0.018518518518518517],[1],[0],[0],[3.087313622236252],['target'],MUSKANTUTORIAL3FINAL,1,2023-09-26_04h40.21.309,tutorial3_muskanjain_au2120087,2023.1.3,60.09882914
166,0,166,0,10,497.4403397,497.4403397,0.052509239,498.4470628,[-0.31296296296296294],[0.19722222222222222],[1],[0],[0],[2.1580077204853296],['target'],MUSKANTUTORIAL3FINAL,1,2023-09-26_04h40.21.309,tutorial3_muskanjain_au2120087,2023.1.3,60.09882914
167,0,167,0,10,499.6533237,499.6533237,0.051275466,500.6618699,[0.45925925925925926],[-0.12037037037037036],[1],[0],[0],[3.1590912733227015],['target'],MUSKANTUTORIAL3FINAL,1,2023-09-26_04h40.21.309,tutorial3_muskanjain_au2120087,2023.1.3,60.09882914
168,0,168,0,10,502.8727687,502.8727687,0.054396791,503.8756629,[-0.05648148148148148],[0.10185185185185185],[1],[0],[0],[2.388898864388466],['target'],MUSKANTUTORIAL3FINAL,1,2023-09-26_04h40.21.309,tutorial3_muskanjain_au2120087,2023.1.3,60.09882914
169,0,169,0,10,505.3165701,505.3165701,0.052612351,506.3234981,[0.07314814814814814],[-0.27314814814814814],[1],[0],[0],[2.7080236300826073],['target'],MUSKANTUTORIAL3FINAL,1,2023-09-26_04h40.21.309,tutorial3_muskanjain_au2120087,2023.1.3,60.09882914
170,0,170,0,5,508.0482684,508.0482684,0.026563063,509.0546101,[-0.17592592592592593],[0.03148148148148148],[1],[0],[0],[1.701585864648223],['target'],MUSKANTUTORIAL3FINAL,1,2023-09-26_04h40.21.309,tutorial3_muskanjain_au2120087,2023.1.3,60.09882914
171,0,171,0,5,509.7819604,509.7819604,0.026918175,510.7866644,[0.05277777777777778],[-0.3194444444444444],[1],[0],[0],[1.917497480288148],['target'],MUSKANTUTORIAL3FINAL,1,2023-09-26_04h40.21.309,tutorial3_muskanjain_au2120087,2023.1.3,60.09882914
172,0,172,0,5,511.7282503,511.7282503,0.025870176,512.7346738,[0.13055555555555556],[-0.4212962962962963],[1],[0],[0],[1.9514169748872519],['target'],MUSKANTUTORIAL3FINAL,1,2023-09-26_04h40.21.309,tutorial3_muskanjain_au2120087,2023.1.3,60.09882914
173,0,173,0,10,513.7439129,513.7439129,0.053777238,514.7494733,[0.16574074074074074],[-0.12407407407407407],[1],[0],[0],[1.324282979592681],['target'],MUSKANTUTORIAL3FINAL,1,2023-09-26_04h40.21.309,tutorial3_muskanjain_au2120087,2023.1.3,60.09882914
174,0,174,0,10,515.1252962,515.1252962,0.05459279,516.1316353,[0.16296296296296298],[0.10555555555555556],[1],[0],[0],[1.6731312479823828],[],MUSKANTUTORIAL3FINAL,1,2023-09-26_04h40.21.309,tutorial3_muskanjain_au2120087,2023.1.3,60.09882914
175,0,175,0,5,516.8229608,516.8229608,0.026263509,,[0.16296296296296298],[0.10555555555555556],[1],[0],[0],[0.5194741860032082],[],MUSKANTUTORIAL3FINAL,1,2023-09-26_04h40.21.309,tutorial3_muskanjain_au2120087,2023.1.3,60.09882914
176,0,176,0,5,517.3756833,517.3756833,0.028125282,518.3796913,[0.42314814814814816],[-0.07685185185185185],[1],[0],[0],[2.349312713369727],['target'],MUSKANTUTORIAL3FINAL,1,2023-09-26_04h40.21.309,tutorial3_muskanjain_au2120087,2023.1.3,60.09882914
177,0,177,0,5,519.7557564,519.7557564,0.028111504,520.7609751,[-0.46944444444444444],[0.2972222222222222],[1],[0],[0],[2.5989358257502317],['target'],MUSKANTUTORIAL3FINAL,1,2023-09-26_04h40.21.309,tutorial3_muskanjain_au2120087,2023.1.3,60.09882914
178,0,178,0,5,522.3866895,522.3866895,0.024367068,523.3919797,[-0.04537037037037037],[0.2759259259259259],[1],[0],[0],[1.7699915207922459],[],MUSKANTUTORIAL3FINAL,1,2023-09-26_04h40.21.309,tutorial3_muskanjain_au2120087,2023.1.3,60.09882914
179,0,179,0,10,524.2166987,524.2166987,0.051161243,525.2237596,[-0.3675925925925926],[-0.1824074074074074],[1],[0],[0],[4.323497202247381],['target'],MUSKANTUTORIAL3FINAL,1,2023-09-26_04h40.21.309,tutorial3_muskanjain_au2120087,2023.1.3,60.09882914
180,0,180,0,10,528.5922345,528.5922345,0.049215024,529.6032234,[-0.3435185185185185],[0.20925925925925926],[1],[0],[0],[2.0286275036633015],['target'],MUSKANTUTORIAL3FINAL,1,2023-09-26_04h40.21.309,tutorial3_muskanjain_au2120087,2023.1.3,60.09882914
181,0,181,0,5,530.646942,530.646942,0.027990617,531.6514562,[-0.24722222222222223],[-0.21296296296296297],[1],[0],[0],[2.49887777864933],['target'],MUSKANTUTORIAL3FINAL,1,2023-09-26_04h40.21.309,tutorial3_muskanjain_au2120087,2023.1.3,60.09882914
182,0,182,0,10,533.2101485,533.2101485,0.053798571,534.2158752,[0.42962962962962964],[0.3287037037037037],[1],[0],[0],[3.1559646110981703],['target'],MUSKANTUTORIAL3FINAL,1,2023-09-26_04h40.21.309,tutorial3_muskanjain_au2120087,2023.1.3,60.09882914
183,0,183,0,5,536.3904597,536.3904597,0.027699951,537.396446,[-0.45185185185185184],[-0.22685185185185186],[1],[0],[0],[3.36507579497993],['target'],MUSKANTUTORIAL3FINAL,1,2023-09-26_04h40.21.309,tutorial3_muskanjain_au2120087,2023.1.3,60.09882914
184,0,184,0,10,539.818335,539.818335,0.051315909,540.8266963,[0.1537037037037037],[-0.33796296296296297],[1],[0],[0],[3.32600430957973],['target'],MUSKANTUTORIAL3FINAL,1,2023-09-26_04h40.21.309,tutorial3_muskanjain_au2120087,2023.1.3,60.09882914
185,0,185,0,10,543.2012916,543.2012916,0.053230127,544.2071107,[0.44907407407407407],[0.09722222222222222],[1],[0],[0],[2.0734954234212637],['target'],MUSKANTUTORIAL3FINAL,1,2023-09-26_04h40.21.309,tutorial3_muskanjain_au2120087,2023.1.3,60.09882914
186,0,186,0,5,545.2970701,545.2970701,0.024818622,546.3052332,[-0.09722222222222222],[-0.12685185185185185],[1],[0],[0],[2.702514750882983],['target'],MUSKANTUTORIAL3FINAL,1,2023-09-26_04h40.21.309,tutorial3_muskanjain_au2120087,2023.1.3,60.09882914
187,0,187,0,10,548.0618692,548.0618692,0.051814131,549.0696541,[0.19166666666666668],[-0.425],[1],[0],[0],[3.041374148800969],['target'],MUSKANTUTORIAL3FINAL,1,2023-09-26_04h40.21.309,tutorial3_muskanjain_au2120087,2023.1.3,60.09882914
188,0,188,0,5,551.1297162,551.1297162,0.028993281,552.1335535,[0.06296296296296296],[-0.14074074074074075],[1],[0],[0],[1.6654890403151512],['target'],MUSKANTUTORIAL3FINAL,1,2023-09-26_04h40.21.309,tutorial3_muskanjain_au2120087,2023.1.3,60.09882914
189,0,189,0,5,552.8252701,552.8252701,0.025801286,553.832067,[0.18611111111111112],[0.4046296296296296],[1],[0],[0],[2.1018678192049265],['target'],MUSKANTUTORIAL3FINAL,1,2023-09-26_04h40.21.309,tutorial3_muskanjain_au2120087,2023.1.3,60.09882914
190,0,190,0,5,554.956297,554.956297,0.025030622,555.9638676,[-0.40555555555555556],[0.35],[1],[0],[0],[3.184390340000391],['target'],MUSKANTUTORIAL3FINAL,1,2023-09-26_04h40.21.309,tutorial3_muskanjain_au2120087,2023.1.3,60.09882914
191,0,191,0,5,558.1722726,558.1722726,0.028005727,559.1774326,[0.1824074074074074],[-0.1824074074074074],[1],[0],[0],[2.565586993470788],['target'],MUSKANTUTORIAL3FINAL,1,2023-09-26_04h40.21.309,tutorial3_muskanjain_au2120087,2023.1.3,60.09882914
192,0,192,0,5,560.7684449,560.7684449,0.026031066,561.7752151,[-0.2675925925925926],[0.49444444444444446],[1],[0],[0],[2.2679079696536064],['target'],MUSKANTUTORIAL3FINAL,1,2023-09-26_04h40.21.309,tutorial3_muskanjain_au2120087,2023.1.3,60.09882914
193,0,193,0,10,563.0993785,563.0993785,0.053839015,564.10637,[0.40185185185185185],[-0.15833333333333333],[1],[0],[0],[3.7888114862143993],['target'],MUSKANTUTORIAL3FINAL,1,2023-09-26_04h40.21.309,tutorial3_muskanjain_au2120087,2023.1.3,60.09882914
194,0,194,0,10,566.9461103,566.9461103,0.052462574,567.9531036,[0.09259259259259259],[-0.20462962962962963],[1],[0],[0],[2.2741928454488516],['target'],MUSKANTUTORIAL3FINAL,1,2023-09-26_04h40.21.309,tutorial3_muskanjain_au2120087,2023.1.3,60.09882914
195,0,195,0,5,569.2441062,569.2441062,0.026568841,570.2510707,[-0.22777777777777777],[0.42962962962962964],[1],[0],[0],[2.1181789003312588],['target'],MUSKANTUTORIAL3FINAL,1,2023-09-26_04h40.21.309,tutorial3_muskanjain_au2120087,2023.1.3,60.09882914
196,0,196,0,10,571.4258281,571.4258281,0.052580351,572.432445,[-0.1037037037037037],[0.4685185185185185],[1],[0],[0],[2.0583025626838207],['target'],MUSKANTUTORIAL3FINAL,1,2023-09-26_04h40.21.309,tutorial3_muskanjain_au2120087,2023.1.3,60.09882914
197,0,197,0,5,573.5092138,573.5092138,0.027569283,574.5139786,[-0.09351851851851851],[0.06574074074074074],[1],[0],[0],[1.783140828832984],['target'],MUSKANTUTORIAL3FINAL,1,2023-09-26_04h40.21.309,tutorial3_muskanjain_au2120087,2023.1.3,60.09882914
198,0,198,0,5,575.3237754,575.3237754,0.027108841,576.3290256,[-0.15555555555555556],[0.07037037037037037],[1],[0],[0],[1.6341602057218552],['target'],MUSKANTUTORIAL3FINAL,1,2023-09-26_04h40.21.309,tutorial3_muskanjain_au2120087,2023.1.3,60.09882914
199,0,199,0,5,576.9876827,576.9876827,0.026202619,577.9943556,[-0.3962962962962963],[-0.019444444444444445],[1],[0],[0],[2.150062844157219],['target'],MUSKANTUTORIAL3FINAL,1,2023-09-26_04h40.21.309,tutorial3_muskanjain_au2120087,2023.1.3,60.09882914
