trials.thisRepN,trials.thisTrialN,trials.thisN,trials.thisIndex,number of distractors,fixation.started,Target.started,mouse.started,mouse.x,mouse.y,mouse.leftButton,mouse.midButton,mouse.rightButton,mouse.time,mouse.clicked_name,participant,session,date,expName,psychopyVersion,frameRate,
0,0,0,0,10,20.988380632996268,20.988380632996268,0.041019926000444684,[0.44555555555555554],[0.4588888888888889],[1],[0],[0],[2.345257077999122],['Target'],395590,001,2023-09-26_16h05.29.731,Visual Search_15 September,2023.1.3,None,
1,0,1,0,10,23.44533713299461,23.44533713299461,0.07737244799500331,[0.24888888888888888],[-0.11333333333333333],[1],[0],[0],[1.501136425002187],['Target'],395590,001,2023-09-26_16h05.29.731,Visual Search_15 September,2023.1.3,None,
2,0,2,0,5,24.942261864998727,24.942261864998727,0.024978494002425577,"[0.4922222222222222, 0.46555555555555556]","[-0.42444444444444446, -0.4122222222222222]","[1, 1]","[0, 0]","[0, 0]","[1.6221797420002986, 2.24257126700104]",['Target'],395590,001,2023-09-26_16h05.29.731,Visual Search_15 September,2023.1.3,None,
3,0,3,0,10,27.245973642995523,27.245973642995523,0.043176088998734485,[0.31444444444444447],[-0.22444444444444445],[1],[0],[0],[1.8281108559967834],['Target'],395590,001,2023-09-26_16h05.29.731,Visual Search_15 September,2023.1.3,None,
4,0,4,0,10,29.117218198000046,29.117218198000046,0.04313580699817976,[0.011111111111111112],[0.4122222222222222],[1],[0],[0],[1.1457168889974128],['Target'],395590,001,2023-09-26_16h05.29.731,Visual Search_15 September,2023.1.3,None,
5,0,5,0,10,30.324797813998885,30.324797813998885,0.04580288099532481,[0.4855555555555556],[-0.32222222222222224],[1],[0],[0],[1.6552977440005634],['Target'],395590,001,2023-09-26_16h05.29.731,Visual Search_15 September,2023.1.3,None,
6,0,6,0,10,32.03045934299735,32.03045934299735,0.043527952999284025,[-0.04555555555555556],[0.034444444444444444],[1],[0],[0],[1.1512342620044365],['Target'],395590,001,2023-09-26_16h05.29.731,Visual Search_15 September,2023.1.3,None,
7,0,7,0,5,33.20261962999939,33.20261962999939,0.023447037005098537,[-0.44666666666666666],[0.06666666666666667],[1],[0],[0],[1.2610141099939938],['Target'],395590,001,2023-09-26_16h05.29.731,Visual Search_15 September,2023.1.3,None,
8,0,8,0,10,34.52547593399504,34.52547593399504,0.04365314500319073,[0.2611111111111111],[-0.45444444444444443],[1],[0],[0],[1.9677477549994364],['Target'],395590,001,2023-09-26_16h05.29.731,Visual Search_15 September,2023.1.3,None,
9,0,9,0,5,36.511594607000006,36.511594607000006,0.023621523003384937,[0.36444444444444446],[-0.02666666666666667],[1],[0],[0],[1.2221371149935294],['Target'],395590,001,2023-09-26_16h05.29.731,Visual Search_15 September,2023.1.3,None,
10,0,10,0,5,37.76447475799796,37.76447475799796,0.023576828003569972,[-0.2722222222222222],[-0.4444444444444444],[1],[0],[0],[1.9838700729960692],['Target'],395590,001,2023-09-26_16h05.29.731,Visual Search_15 September,2023.1.3,None,
11,0,11,0,10,39.81017446399346,39.81017446399346,0.04555515100219054,[0.3422222222222222],[0.22],[1],[0],[0],[0.9314178549975622],['Target'],395590,001,2023-09-26_16h05.29.731,Visual Search_15 September,2023.1.3,None,
12,0,12,0,10,40.78746724899975,40.78746724899975,0.043392945000960026,[-0.30777777777777776],[0.3844444444444444],[1],[0],[0],[1.0884214649995556],['Target'],395590,001,2023-09-26_16h05.29.731,Visual Search_15 September,2023.1.3,None,
13,0,13,0,10,41.93996458599577,41.93996458599577,0.04981762299576076,[-0.16],[0.3022222222222222],[1],[0],[0],[1.0153464599934523],['Target'],395590,001,2023-09-26_16h05.29.731,Visual Search_15 September,2023.1.3,None,
14,0,14,0,5,42.972661980995326,42.972661980995326,0.0228921599991736,[0.16],[0.03222222222222222],[1],[0],[0],[1.265160012000706],['Target'],395590,001,2023-09-26_16h05.29.731,Visual Search_15 September,2023.1.3,None,
15,0,15,0,10,44.29725675199734,44.29725675199734,0.04478859299706528,[-0.2677777777777778],[0.07],[1],[0],[0],[1.0629932519950671],['Target'],395590,001,2023-09-26_16h05.29.731,Visual Search_15 September,2023.1.3,None,
16,0,16,0,5,45.38557366499299,45.38557366499299,0.023393688999931328,[0.3088888888888889],[0.28444444444444444],[1],[0],[0],[1.1041972210005042],['Target'],395590,001,2023-09-26_16h05.29.731,Visual Search_15 September,2023.1.3,None,
17,0,17,0,5,46.52036006599519,46.52036006599519,0.023207435995573178,"[0.24444444444444444, 0.27]","[0.005555555555555556, 0.005555555555555556]","[1, 1]","[0, 0]","[0, 0]","[0.9006285209979978, 1.4037492179995752]",['Target'],395590,001,2023-09-26_16h05.29.731,Visual Search_15 September,2023.1.3,None,
18,0,18,0,5,47.95524317599484,47.95524317599484,0.023720840996247716,[0.42333333333333334],[-0.4211111111111111],[1],[0],[0],[1.416802847001236],['Target'],395590,001,2023-09-26_16h05.29.731,Visual Search_15 September,2023.1.3,None,
19,0,19,0,5,49.41530878399499,49.41530878399499,0.025657192003563978,[0.09666666666666666],[0.20555555555555555],[1],[0],[0],[1.362403801002074],['Target'],395590,001,2023-09-26_16h05.29.731,Visual Search_15 September,2023.1.3,None,
20,0,20,0,5,50.80230811999354,50.80230811999354,0.025276873995608184,[-0.07555555555555556],[-0.21777777777777776],[1],[0],[0],[1.4196273930065217],['Target'],395590,001,2023-09-26_16h05.29.731,Visual Search_15 September,2023.1.3,None,
21,0,21,0,5,52.250806914998975,52.250806914998975,0.022352801002853084,[-0.32],[-0.11555555555555555],[1],[0],[0],[1.307248689001426],['Target'],395590,001,2023-09-26_16h05.29.731,Visual Search_15 September,2023.1.3,None,
22,0,22,0,5,53.595562410999264,53.595562410999264,0.02245449899783125,[-0.013333333333333334],[0.38222222222222224],[1],[0],[0],[1.0182468370039715],['Target'],395590,001,2023-09-26_16h05.29.731,Visual Search_15 September,2023.1.3,None,
23,0,23,0,10,54.67170844099746,54.67170844099746,0.046540287003153935,[0.13],[-0.021111111111111112],[1],[0],[0],[1.2631054890007363],['Target'],395590,001,2023-09-26_16h05.29.731,Visual Search_15 September,2023.1.3,None,
24,0,24,0,5,55.95477543999732,55.95477543999732,0.023720545003016014,"[-0.36333333333333334, -0.3388888888888889]","[0.4811111111111111, 0.47444444444444445]","[1, 1]","[0, 0]","[0, 0]","[2.061029772994516, 2.4868354399950476]",['Target'],395590,001,2023-09-26_16h05.29.731,Visual Search_15 September,2023.1.3,None,
25,0,25,0,10,58.49906205199659,58.49906205199659,0.04556713499914622,[0.4077777777777778],[0.2611111111111111],[1],[0],[0],[1.6565156340002432],['Target'],395590,001,2023-09-26_16h05.29.731,Visual Search_15 September,2023.1.3,None,
26,0,26,0,5,60.181851077999454,60.181851077999454,0.023808418998669367,[-0.1988888888888889],[0.12555555555555556],[1],[0],[0],[2.1318711650019395],['Target'],395590,001,2023-09-26_16h05.29.731,Visual Search_15 September,2023.1.3,None,
27,0,27,0,10,62.37604825199378,62.37604825199378,0.04298619299515849,[-0.15888888888888889],[0.43444444444444447],[1],[0],[0],[1.1913524769988726],['Target'],395590,001,2023-09-26_16h05.29.731,Visual Search_15 September,2023.1.3,None,
28,0,28,0,5,63.58655262999673,63.58655262999673,0.023550420999526978,[0.2411111111111111],[-0.3466666666666667],[1],[0],[0],[1.5251409210031852],['Target'],395590,001,2023-09-26_16h05.29.731,Visual Search_15 September,2023.1.3,None,
29,0,29,0,5,65.14249869899504,65.14249869899504,0.023341382999205962,"[-0.11222222222222222, -0.11888888888888889]","[0.11888888888888889, 0.10555555555555556]","[1, 1]","[0, 0]","[0, 0]","[0.8951295189981465, 2.084231588996772]",['Target'],395590,001,2023-09-26_16h05.29.731,Visual Search_15 September,2023.1.3,None,
30,0,30,0,10,67.29007154899591,67.29007154899591,0.04360629499569768,[-0.4066666666666667],[0.2477777777777778],[1],[0],[0],[0.8915075129989418],['Target'],395590,001,2023-09-26_16h05.29.731,Visual Search_15 September,2023.1.3,None,
31,0,31,0,5,68.1994984289995,68.1994984289995,0.023229421996802557,[-0.10111111111111111],[-0.19333333333333333],[1],[0],[0],[1.3315308669989463],['Target'],395590,001,2023-09-26_16h05.29.731,Visual Search_15 September,2023.1.3,None,
32,0,32,0,5,69.56141305299388,69.56141305299388,0.023645307999686338,[0.14555555555555555],[-0.46555555555555556],[1],[0],[0],[2.114663410000503],['Target'],395590,001,2023-09-26_16h05.29.731,Visual Search_15 September,2023.1.3,None,
33,0,33,0,10,71.73241112499818,71.73241112499818,0.043005428997275885,[0.23222222222222222],[0.48444444444444446],[1],[0],[0],[1.3446718260020134],['Target'],395590,001,2023-09-26_16h05.29.731,Visual Search_15 September,2023.1.3,None,
34,0,34,0,10,73.12808448699798,73.12808448699798,0.04380030099855503,[0.24888888888888888],[0.39666666666666667],[1],[0],[0],[1.4527591860023676],['Target'],395590,001,2023-09-26_16h05.29.731,Visual Search_15 September,2023.1.3,None,
35,0,35,0,5,74.60542803699354,74.60542803699354,0.022732679004548118,"[-0.3511111111111111, -0.3377777777777778]","[-0.005555555555555556, -0.013333333333333334]","[1, 1]","[0, 0]","[0, 0]","[1.0921653139957925, 1.690258210997854]",['Target'],395590,001,2023-09-26_16h05.29.731,Visual Search_15 September,2023.1.3,None,
36,0,36,0,5,76.32553251099307,76.32553251099307,0.02355500300473068,[-0.13777777777777778],[0.48333333333333334],[1],[0],[0],[1.4903554280026583],['Target'],395590,001,2023-09-26_16h05.29.731,Visual Search_15 September,2023.1.3,None,
37,0,37,0,10,77.87168647099315,77.87168647099315,0.04435992200160399,[-0.30666666666666664],[0.21888888888888888],[1],[0],[0],[1.015604821004672],['Target'],395590,001,2023-09-26_16h05.29.731,Visual Search_15 September,2023.1.3,None,
38,0,38,0,10,78.94034000199463,78.94034000199463,0.045288446999620646,[0.2922222222222222],[0.29333333333333333],[1],[0],[0],[1.1274299409997184],['Target'],395590,001,2023-09-26_16h05.29.731,Visual Search_15 September,2023.1.3,None,
39,0,39,0,10,80.14567778199853,80.14567778199853,0.060919196002942044,[0.01],[0.044444444444444446],[1],[0],[0],[1.35110828300094],['Target'],395590,001,2023-09-26_16h05.29.731,Visual Search_15 September,2023.1.3,None,
40,0,40,0,10,81.54119869399437,81.54119869399437,0.046533209999324754,[-0.47555555555555556],[0.0044444444444444444],[1],[0],[0],[1.183548769004119],['Target'],395590,001,2023-09-26_16h05.29.731,Visual Search_15 September,2023.1.3,None,
41,0,41,0,5,82.75470892099838,82.75470892099838,0.02225113099848386,[-0.056666666666666664],[-0.2577777777777778],[1],[0],[0],[1.3954971479979577],['Target'],395590,001,2023-09-26_16h05.29.731,Visual Search_15 September,2023.1.3,None,
42,0,42,0,5,84.17922794399783,84.17922794399783,0.022400811001716647,[-0.33444444444444443],[-0.03777777777777778],[1],[0],[0],[1.497900631999073],['Target'],395590,001,2023-09-26_16h05.29.731,Visual Search_15 September,2023.1.3,None,
43,0,43,0,5,85.7115114249973,85.7115114249973,0.031133584001509007,[-0.4633333333333333],[-0.10888888888888888],[1],[0],[0],[0.7764841379976133],['Target'],395590,001,2023-09-26_16h05.29.731,Visual Search_15 September,2023.1.3,None,
44,0,44,0,5,86.5138907149958,86.5138907149958,0.02413084499858087,[0.4955555555555556],[-0.42],[1],[0],[0],[2.0725818920036545],['Target'],395590,001,2023-09-26_16h05.29.731,Visual Search_15 September,2023.1.3,None,
45,0,45,0,5,88.62435455999366,88.62435455999366,0.02329660000395961,[-0.052222222222222225],[-0.1711111111111111],[1],[0],[0],[0.9540125769999577],['Target'],395590,001,2023-09-26_16h05.29.731,Visual Search_15 September,2023.1.3,None,
46,0,46,0,10,89.62827976299741,89.62827976299741,0.04332421700382838,[0.4088888888888889],[-0.08444444444444445],[1],[0],[0],[1.184692383001675],['Target'],395590,001,2023-09-26_16h05.29.731,Visual Search_15 September,2023.1.3,None,
47,0,47,0,5,90.83776231599768,90.83776231599768,0.023079703001712915,"[0.43777777777777777, 0.4288888888888889]","[0.4822222222222222, 0.47888888888888886]","[1, 1]","[0, 0]","[0, 0]","[1.5228738290024921, 2.0172765309980605]",['Target'],395590,001,2023-09-26_16h05.29.731,Visual Search_15 September,2023.1.3,None,
48,0,48,0,10,92.91689036999742,92.91689036999742,0.042257724999217317,[-0.45444444444444443],[-0.3388888888888889],[1],[0],[0],[1.3571867589998874],['Target'],395590,001,2023-09-26_16h05.29.731,Visual Search_15 September,2023.1.3,None,
49,0,49,0,5,94.29230611699313,94.29230611699313,0.02370941099798074,"[-0.15222222222222223, -0.14777777777777779]","[-0.15222222222222223, -0.16111111111111112]","[1, 1]","[0, 0]","[0, 0]","[1.3004105369982426, 1.8756727410000167]",['Target'],395590,001,2023-09-26_16h05.29.731,Visual Search_15 September,2023.1.3,None,
50,0,50,0,10,96.22888254999998,96.22888254999998,0.04340905500430381,[0.4855555555555556],[0.04555555555555556],[1],[0],[0],[1.4581577349963482],['Target'],395590,001,2023-09-26_16h05.29.731,Visual Search_15 September,2023.1.3,None,
51,0,51,0,5,97.70631798199611,97.70631798199611,0.02433300499978941,[-0.043333333333333335],[0.21],[1],[0],[0],[1.0755974119965686],['Target'],395590,001,2023-09-26_16h05.29.731,Visual Search_15 September,2023.1.3,None,
52,0,52,0,10,98.84536026699789,98.84536026699789,0.04615553900657687,[-0.2544444444444444],[-0.19777777777777777],[1],[0],[0],[1.8120959769948968],['Target'],395590,001,2023-09-26_16h05.29.731,Visual Search_15 September,2023.1.3,None,
53,0,53,0,10,100.71388952399866,100.71388952399866,0.048336492996895686,[-0.16666666666666666],[0.40444444444444444],[1],[0],[0],[1.5857122519955738],['Target'],395590,001,2023-09-26_16h05.29.731,Visual Search_15 September,2023.1.3,None,
54,0,54,0,5,102.322460132993,102.322460132993,0.023425726001732983,[0.33555555555555555],[0.3622222222222222],[1],[0],[0],[1.5976059010063182],['Target'],395590,001,2023-09-26_16h05.29.731,Visual Search_15 September,2023.1.3,None,
55,0,55,0,10,103.97136011299881,103.97136011299881,0.04437427199445665,[0.32222222222222224],[-0.16333333333333333],[1],[0],[0],[1.5424846170062665],['Target'],395590,001,2023-09-26_16h05.29.731,Visual Search_15 September,2023.1.3,None,
56,0,56,0,10,105.57344670699968,105.57344670699968,0.044682879000902176,[0.3055555555555556],[0.37444444444444447],[1],[0],[0],[1.1161623279986088],['Target'],395590,001,2023-09-26_16h05.29.731,Visual Search_15 September,2023.1.3,None,
57,0,57,0,10,106.73720519299968,106.73720519299968,0.0431782759987982,[0.13444444444444445],[-0.4577777777777778],[1],[0],[0],[1.6389019429989276],['Target'],395590,001,2023-09-26_16h05.29.731,Visual Search_15 September,2023.1.3,None,
58,0,58,0,5,108.39650204399368,108.39650204399368,0.02411886500340188,[-0.45555555555555555],[-0.2777777777777778],[1],[0],[0],[1.516675746999681],['Target'],395590,001,2023-09-26_16h05.29.731,Visual Search_15 September,2023.1.3,None,
59,0,59,0,5,109.94319134699617,109.94319134699617,0.02335004199994728,[-0.39666666666666667],[-0.17444444444444446],[1],[0],[0],[1.0330468879983528],['Target'],395590,001,2023-09-26_16h05.29.731,Visual Search_15 September,2023.1.3,None,
60,0,60,0,5,111.00856062799721,111.00856062799721,0.02521422499557957,[0.37444444444444447],[0.5],[1],[0],[0],[1.447394142000121],['Target'],395590,001,2023-09-26_16h05.29.731,Visual Search_15 September,2023.1.3,None,
61,0,61,0,10,112.51282050399459,112.51282050399459,0.044538269998156466,[0.31444444444444447],[0.19333333333333333],[1],[0],[0],[1.2024339320050785],['Target'],395590,001,2023-09-26_16h05.29.731,Visual Search_15 September,2023.1.3,None,
62,0,62,0,10,113.77176710899948,113.77176710899948,0.043759870997746475,[0.05555555555555555],[-0.17222222222222222],[1],[0],[0],[1.0548750960006146],['Target'],395590,001,2023-09-26_16h05.29.731,Visual Search_15 September,2023.1.3,None,
63,0,63,0,5,114.844723229995,114.844723229995,0.02372309099882841,[-0.3988888888888889],[-0.12777777777777777],[1],[0],[0],[0.9906194269933621],['Target'],395590,001,2023-09-26_16h05.29.731,Visual Search_15 September,2023.1.3,None,
64,0,64,0,10,115.89627848399687,115.89627848399687,0.04356438999820966,[0.3411111111111111],[-0.3477777777777778],[1],[0],[0],[1.476839625996945],['Target'],395590,001,2023-09-26_16h05.29.731,Visual Search_15 September,2023.1.3,None,
65,0,65,0,5,117.39113058200019,117.39113058200019,0.023020653999992646,"[-0.0022222222222222222, 0.015555555555555555]","[-0.32222222222222224, -0.32222222222222224]","[1, 1]","[0, 0]","[0, 0]","[1.0289168009985588, 1.7572491870014346]",['Target'],395590,001,2023-09-26_16h05.29.731,Visual Search_15 September,2023.1.3,None,
66,0,66,0,5,119.1810036589959,119.1810036589959,0.025299695000285283,[0.1288888888888889],[0.4222222222222222],[1],[0],[0],[1.3195881359933992],['Target'],395590,001,2023-09-26_16h05.29.731,Visual Search_15 September,2023.1.3,None,
67,0,67,0,5,120.53190308599733,120.53190308599733,0.024441068999294657,[0.31333333333333335],[0.15777777777777777],[1],[0],[0],[1.0742853809933877],['Target'],395590,001,2023-09-26_16h05.29.731,Visual Search_15 September,2023.1.3,None,
68,0,68,0,10,121.67290681899613,121.67290681899613,0.045038007003313396,[-0.05444444444444444],[0.07111111111111111],[1],[0],[0],[1.0764099519947194],['Target'],395590,001,2023-09-26_16h05.29.731,Visual Search_15 September,2023.1.3,None,
69,0,69,0,10,122.79130878399883,122.79130878399883,0.04271975700248731,[0.3566666666666667],[0.09222222222222222],[1],[0],[0],[1.5407387149971328],['Target'],395590,001,2023-09-26_16h05.29.731,Visual Search_15 September,2023.1.3,None,
70,0,70,0,5,124.35502874699887,124.35502874699887,0.022983354996540584,[-0.1511111111111111],[0.43],[1],[0],[0],[1.2252927790032118],['Target'],395590,001,2023-09-26_16h05.29.731,Visual Search_15 September,2023.1.3,None,
71,0,71,0,10,125.63936930299678,125.63936930299678,0.0461803130019689,"[-0.12111111111111111, -0.12555555555555556]","[-0.27666666666666667, -0.24888888888888888]","[1, 1]","[0, 0]","[0, 0]","[1.423049192999315, 2.073548916996515]",['Target'],395590,001,2023-09-26_16h05.29.731,Visual Search_15 September,2023.1.3,None,
72,0,72,0,5,127.73874380399502,127.73874380399502,0.02540910000243457,[0.42],[0.24333333333333335],[1],[0],[0],[1.2544328389994917],['Target'],395590,001,2023-09-26_16h05.29.731,Visual Search_15 September,2023.1.3,None,
73,0,73,0,10,129.05362574299943,129.05362574299943,0.04251558599935379,[0.024444444444444446],[-0.3811111111111111],[1],[0],[0],[2.26068171299994],['Target'],395590,001,2023-09-26_16h05.29.731,Visual Search_15 September,2023.1.3,None,
74,0,74,0,10,131.3880258989957,131.3880258989957,0.06078836799861165,[-0.10666666666666667],[0.18666666666666668],[1],[0],[0],[1.391571815001953],['Target'],395590,001,2023-09-26_16h05.29.731,Visual Search_15 September,2023.1.3,None,
75,0,75,0,10,132.82387528499385,132.82387528499385,0.04155310600617668,[-0.058888888888888886],[0.44222222222222224],[1],[0],[0],[1.3073831820001942],['Target'],395590,001,2023-09-26_16h05.29.731,Visual Search_15 September,2023.1.3,None,
76,0,76,0,10,134.1851898879977,134.1851898879977,0.04305584700341569,[-0.4266666666666667],[-0.38222222222222224],[1],[0],[0],[2.1318728539990843],['Target'],395590,001,2023-09-26_16h05.29.731,Visual Search_15 September,2023.1.3,None,
77,0,77,0,10,136.36001578099967,136.36001578099967,0.04269110300083412,[0.012222222222222223],[0.4411111111111111],[1],[0],[0],[1.5029083879999234],['Target'],395590,001,2023-09-26_16h05.29.731,Visual Search_15 September,2023.1.3,None,
78,0,78,0,5,137.88729193699692,137.88729193699692,0.022383995004929602,[0.27],[0.08333333333333333],[1],[0],[0],[1.2526381330026197],['Target'],395590,001,2023-09-26_16h05.29.731,Visual Search_15 September,2023.1.3,None,
79,0,79,0,10,139.19627867399686,139.19627867399686,0.04380983800365357,[0.4677777777777778],[0.05333333333333334],[1],[0],[0],[1.8461871760009672],['Target'],395590,001,2023-09-26_16h05.29.731,Visual Search_15 September,2023.1.3,None,
80,0,80,0,5,141.06743083599576,141.06743083599576,0.022350056999130175,[0.20555555555555555],[0.30666666666666664],[1],[0],[0],[1.5370860210023238],['Target'],395590,001,2023-09-26_16h05.29.731,Visual Search_15 September,2023.1.3,None,
81,0,81,0,10,142.66334371599805,142.66334371599805,0.042914436002320144,[0.33],[0.4022222222222222],[1],[0],[0],[1.1306235759984702],['Target'],395590,001,2023-09-26_16h05.29.731,Visual Search_15 September,2023.1.3,None,
82,0,82,0,5,143.81396074499935,143.81396074499935,0.023038573999656364,[0.2866666666666667],[-0.38],[1],[0],[0],[1.6452709959994536],['Target'],395590,001,2023-09-26_16h05.29.731,Visual Search_15 September,2023.1.3,None,
83,0,83,0,10,145.51932841599773,145.51932841599773,0.04290613299963297,[0.4888888888888889],[-0.10666666666666667],[1],[0],[0],[1.0417152820009505],['Target'],395590,001,2023-09-26_16h05.29.731,Visual Search_15 September,2023.1.3,None,
84,0,84,0,5,146.5802540739969,146.5802540739969,0.02335898699675454,[-0.1111111111111111],[0.47444444444444445],[1],[0],[0],[2.4783988920025877],['Target'],395590,001,2023-09-26_16h05.29.731,Visual Search_15 September,2023.1.3,None,
85,0,85,0,10,149.1185069839994,149.1185069839994,0.042698177996499,[0.08],[0.2577777777777778],[1],[0],[0],[0.9405834380013403],['Target'],395590,001,2023-09-26_16h05.29.731,Visual Search_15 September,2023.1.3,None,
86,0,86,0,10,150.10989107599744,150.10989107599744,0.04347571199468803,[-0.14444444444444443],[-0.09],[1],[0],[0],[1.957511455999338],['Target'],395590,001,2023-09-26_16h05.29.731,Visual Search_15 September,2023.1.3,None,
87,0,87,0,10,152.11695642599807,152.11695642599807,0.04151879600249231,[0.03888888888888889],[0.3933333333333333],[1],[0],[0],[1.224285381998925],['Target'],395590,001,2023-09-26_16h05.29.731,Visual Search_15 September,2023.1.3,None,
88,0,88,0,10,153.39085212599457,153.39085212599457,0.042894090001937,[0.06777777777777778],[-0.005555555555555556],[1],[0],[0],[1.173103817003721],['Target'],395590,001,2023-09-26_16h05.29.731,Visual Search_15 September,2023.1.3,None,
89,0,89,0,5,154.58240079699317,154.58240079699317,0.02335044400388142,[-0.0022222222222222222],[-0.18888888888888888],[1],[0],[0],[1.6410721969950828],['Target'],395590,001,2023-09-26_16h05.29.731,Visual Search_15 September,2023.1.3,None,
90,0,90,0,5,156.26031690099626,156.26031690099626,0.02252816699910909,[0.2288888888888889],[-0.33666666666666667],[1],[0],[0],[1.1002017649952904],['Target'],395590,001,2023-09-26_16h05.29.731,Visual Search_15 September,2023.1.3,None,
91,0,91,0,10,157.41218521299743,157.41218521299743,0.042586015006236266,[0.48333333333333334],[-0.35333333333333333],[1],[0],[0],[1.7601640979992226],['Target'],395590,001,2023-09-26_16h05.29.731,Visual Search_15 September,2023.1.3,None,
92,0,92,0,10,159.22538248699857,159.22538248699857,0.04206719500507461,[0.47555555555555556],[0.006666666666666667],[1],[0],[0],[1.2050559790004627],['Target'],395590,001,2023-09-26_16h05.29.731,Visual Search_15 September,2023.1.3,None,
93,0,93,0,10,160.47152674599783,160.47152674599783,0.0423468149965629,[0.4588888888888889],[-0.35333333333333333],[1],[0],[0],[1.4593767680053134],['Target'],395590,001,2023-09-26_16h05.29.731,Visual Search_15 September,2023.1.3,None,
94,0,94,0,10,162.0034676629948,162.0034676629948,0.05515335100062657,"[-0.4777777777777778, -0.45222222222222225]","[-0.4888888888888889, -0.4688888888888889]","[1, 1]","[0, 0]","[0, 0]","[2.0261300620040856, 2.66555197800335]",['Target'],395590,001,2023-09-26_16h05.29.731,Visual Search_15 September,2023.1.3,None,
95,0,95,0,5,164.68765303199325,164.68765303199325,0.02334970900119515,[-0.1],[-0.07888888888888888],[1],[0],[0],[1.0621405159981805],['Target'],395590,001,2023-09-26_16h05.29.731,Visual Search_15 September,2023.1.3,None,
96,0,96,0,5,165.77903552899807,165.77903552899807,0.023212574997160118,[-0.16666666666666666],[0.22333333333333333],[1],[0],[0],[0.9019284950045403],['Target'],395590,001,2023-09-26_16h05.29.731,Visual Search_15 September,2023.1.3,None,
97,0,97,0,10,166.74490269199305,166.74490269199305,0.050325730997428764,[0.3],[-0.07],[1],[0],[0],[1.3811158480020822],['Target'],395590,001,2023-09-26_16h05.29.731,Visual Search_15 September,2023.1.3,None,
98,0,98,0,10,168.17691069499415,168.17691069499415,0.04258007000316866,[-0.07666666666666666],[0.05],[1],[0],[0],[1.0680325989960693],['Target'],395590,001,2023-09-26_16h05.29.731,Visual Search_15 September,2023.1.3,None,
99,0,99,0,10,169.28973248199327,169.28973248199327,0.0436549859950901,[-0.12666666666666668],[0.008888888888888889],[1],[0],[0],[0.9421806589962216],['Target'],395590,001,2023-09-26_16h05.29.731,Visual Search_15 September,2023.1.3,None,
100,0,100,0,10,170.27935022999736,170.27935022999736,0.043357998998544645,[-0.22],[-0.44555555555555554],[1],[0],[0],[2.373057862998394],['Target'],395590,001,2023-09-26_16h05.29.731,Visual Search_15 September,2023.1.3,None,
101,0,101,0,5,172.67868159299542,172.67868159299542,0.02421989200229291,[-0.2577777777777778],[0.28555555555555556],[1],[0],[0],[1.776986481003405],['Target'],395590,001,2023-09-26_16h05.29.731,Visual Search_15 September,2023.1.3,None,
102,0,102,0,10,174.51416531299765,174.51416531299765,0.04556136699829949,"[-0.3011111111111111, -0.33666666666666667]","[-0.36333333333333334, -0.36333333333333334]","[1, 1]","[0, 0]","[0, 0]","[1.9192258569964906, 2.626740339001117]",['Target'],395590,001,2023-09-26_16h05.29.731,Visual Search_15 September,2023.1.3,None,
103,0,103,0,10,177.19308994399762,177.19308994399762,0.04260441900260048,[0.09111111111111111],[-0.3466666666666667],[1],[0],[0],[1.597674199998437],['Target'],395590,001,2023-09-26_16h05.29.731,Visual Search_15 September,2023.1.3,None,
104,0,104,0,5,178.80992425299337,178.80992425299337,0.022323263001453597,"[-0.35444444444444445, -0.3488888888888889]","[0.2311111111111111, 0.21]","[1, 1]","[0, 0]","[0, 0]","[1.2479919800025527, 1.8952031540029566]",['Target'],395590,001,2023-09-26_16h05.29.731,Visual Search_15 September,2023.1.3,None,
105,0,105,0,5,180.73357777699857,180.73357777699857,0.02314408799429657,[-0.21777777777777776],[0.2288888888888889],[1],[0],[0],[1.4765805049974006],['Target'],395590,001,2023-09-26_16h05.29.731,Visual Search_15 September,2023.1.3,None,
106,0,106,0,5,182.2407824269976,182.2407824269976,0.02329239499522373,[-0.48],[0.31444444444444447],[1],[0],[0],[1.0638928580010543],['Target'],395590,001,2023-09-26_16h05.29.731,Visual Search_15 September,2023.1.3,None,
107,0,107,0,10,183.36110959999496,183.36110959999496,0.04384438599663554,[-0.1288888888888889],[-0.47],[1],[0],[0],[2.725673166998604],['Target'],395590,001,2023-09-26_16h05.29.731,Visual Search_15 September,2023.1.3,None,
108,0,108,0,5,186.11609812199458,186.11609812199458,0.023085084998456296,[0.27555555555555555],[0.008888888888888889],[1],[0],[0],[1.7206945090001682],['Target'],395590,001,2023-09-26_16h05.29.731,Visual Search_15 September,2023.1.3,None,
109,0,109,0,5,187.86002202699456,187.86002202699456,0.02263742499781074,[0.10555555555555556],[0.4722222222222222],[1],[0],[0],[1.395327214995632],['Target'],395590,001,2023-09-26_16h05.29.731,Visual Search_15 September,2023.1.3,None,
110,0,110,0,10,189.31558725899959,189.31558725899959,0.041879237003740855,[-0.2511111111111111],[0.2911111111111111],[1],[0],[0],[0.8683690190009656],['Target'],395590,001,2023-09-26_16h05.29.731,Visual Search_15 September,2023.1.3,None,
111,0,111,0,5,190.20203901700006,190.20203901700006,0.022964064999541733,[0.11222222222222222],[0.47],[1],[0],[0],[0.8679714929967304],['Target'],395590,001,2023-09-26_16h05.29.731,Visual Search_15 September,2023.1.3,None,
112,0,112,0,10,191.12737560999813,191.12737560999813,0.04351021100592334,[-0.021111111111111112],[0.04111111111111111],[1],[0],[0],[1.890258879000612],['Target'],395590,001,2023-09-26_16h05.29.731,Visual Search_15 September,2023.1.3,None,
113,0,113,0,10,193.0660438949999,193.0660438949999,0.04284578400256578,[-0.2833333333333333],[-0.1411111111111111],[1],[0],[0],[1.6054655740008457],['Target'],395590,001,2023-09-26_16h05.29.731,Visual Search_15 September,2023.1.3,None,
114,0,114,0,5,194.69558915299422,194.69558915299422,0.02385865199903492,[-0.07666666666666666],[0.08333333333333333],[1],[0],[0],[0.9711139749997528],['Target'],395590,001,2023-09-26_16h05.29.731,Visual Search_15 September,2023.1.3,None,
115,0,115,0,10,195.72145395400003,195.72145395400003,0.04374816599738551,[0.028888888888888888],[0.03111111111111111],[1],[0],[0],[0.9721176599996397],['Target'],395590,001,2023-09-26_16h05.29.731,Visual Search_15 September,2023.1.3,None,
116,0,116,0,5,196.71660695399623,196.71660695399623,0.022649360995274037,[-0.3333333333333333],[0.022222222222222223],[1],[0],[0],[1.4122790539986454],['Target'],395590,001,2023-09-26_16h05.29.731,Visual Search_15 September,2023.1.3,None,
117,0,117,0,5,198.15823787599948,198.15823787599948,0.023365739005384967,"[0.38666666666666666, 0.42]","[0.0077777777777777776, -0.0033333333333333335]","[1, 1]","[0, 0]","[0, 0]","[1.7102579640049953, 2.4014292010033387]",['Target'],395590,001,2023-09-26_16h05.29.731,Visual Search_15 September,2023.1.3,None,
118,0,118,0,10,200.6240499589985,200.6240499589985,0.044721801998093724,[0.45666666666666667],[0.29],[1],[0],[0],[1.4027870279969648],['Target'],395590,001,2023-09-26_16h05.29.731,Visual Search_15 September,2023.1.3,None,
119,0,119,0,10,202.07709303499723,202.07709303499723,0.04266908000136027,[0.10888888888888888],[-0.37777777777777777],[1],[0],[0],[1.9165993890055688],['Target'],395590,001,2023-09-26_16h05.29.731,Visual Search_15 September,2023.1.3,None,
120,0,120,0,10,204.0357493499978,204.0357493499978,0.042003085000033025,[-0.3977777777777778],[-0.2388888888888889],[1],[0],[0],[1.488637649003067],['Target'],395590,001,2023-09-26_16h05.29.731,Visual Search_15 September,2023.1.3,None,
121,0,121,0,10,205.57968504899327,205.57968504899327,0.042515253997407854,[0.15222222222222223],[-0.07111111111111111],[1],[0],[0],[1.4935925669997232],['Target'],395590,001,2023-09-26_16h05.29.731,Visual Search_15 September,2023.1.3,None,
122,0,122,0,5,207.09248743299395,207.09248743299395,0.023744530997646507,[-0.31],[-0.1411111111111111],[1],[0],[0],[1.0434954349984764],['Target'],395590,001,2023-09-26_16h05.29.731,Visual Search_15 September,2023.1.3,None,
123,0,123,0,5,208.16496620499674,208.16496620499674,0.022834348004835192,[-0.4711111111111111],[-0.35555555555555557],[1],[0],[0],[1.4824841679946985],['Target'],395590,001,2023-09-26_16h05.29.731,Visual Search_15 September,2023.1.3,None,
124,0,124,0,5,209.67593879199558,209.67593879199558,0.022252385002502706,[-0.40444444444444444],[-0.23444444444444446],[1],[0],[0],[0.968164327001432],['Target'],395590,001,2023-09-26_16h05.29.731,Visual Search_15 September,2023.1.3,None,
125,0,125,0,10,210.70642417399358,210.70642417399358,0.04323088599630864,[-0.2833333333333333],[0.23333333333333334],[1],[0],[0],[1.2183761799969943],['Target'],395590,001,2023-09-26_16h05.29.731,Visual Search_15 September,2023.1.3,None,
126,0,126,0,10,211.96864108099544,211.96864108099544,0.042451641005754936,[-0.4711111111111111],[-0.16],[1],[0],[0],[0.9701437580006314],['Target'],395590,001,2023-09-26_16h05.29.731,Visual Search_15 September,2023.1.3,None,
127,0,127,0,10,213.0151772159952,213.0151772159952,0.06091243699484039,[-0.43777777777777777],[0.23777777777777778],[1],[0],[0],[1.0042789189974428],['Target'],395590,001,2023-09-26_16h05.29.731,Visual Search_15 September,2023.1.3,None,
128,0,128,0,10,214.065668833995,214.065668833995,0.04204348100029165,[-0.45],[-0.26222222222222225],[1],[0],[0],[1.292318215004343],['Target'],395590,001,2023-09-26_16h05.29.731,Visual Search_15 September,2023.1.3,None,
129,0,129,0,10,215.402217250994,215.402217250994,0.0428165560006164,[0.02],[0.13555555555555557],[1],[0],[0],[1.766197753000597],['Target'],395590,001,2023-09-26_16h05.29.731,Visual Search_15 September,2023.1.3,None,
130,0,130,0,5,217.1928676979951,217.1928676979951,0.02355007799633313,[0.38666666666666666],[0.027777777777777776],[1],[0],[0],[1.6252583960012998],['Target'],395590,001,2023-09-26_16h05.29.731,Visual Search_15 September,2023.1.3,None,
131,0,131,0,10,218.88078934799705,218.88078934799705,0.04389214199909475,"[0.20555555555555555, 0.22555555555555556]","[0.2388888888888889, 0.2388888888888889]","[1, 1]","[0, 0]","[0, 0]","[1.7795318420030526, 2.411979604003136]",['Target'],395590,001,2023-09-26_16h05.29.731,Visual Search_15 September,2023.1.3,None,
132,0,132,0,5,221.3119100249969,221.3119100249969,0.023805830998753663,[0.03777777777777778],[0.3377777777777778],[1],[0],[0],[1.8030352920031874],['Target'],395590,001,2023-09-26_16h05.29.731,Visual Search_15 September,2023.1.3,None,
133,0,133,0,5,223.16227685599733,223.16227685599733,0.0337944159982726,[0.3622222222222222],[0.3333333333333333],[1],[0],[0],[1.2459207989959395],['Target'],395590,001,2023-09-26_16h05.29.731,Visual Search_15 September,2023.1.3,None,
134,0,134,0,10,224.45890191099897,224.45890191099897,0.042401637001603376,[-0.12555555555555556],[-0.3477777777777778],[1],[0],[0],[2.3312075160065433],['Target'],395590,001,2023-09-26_16h05.29.731,Visual Search_15 September,2023.1.3,None,
135,0,135,0,5,226.81371606599714,226.81371606599714,0.0235353349999059,[0.07444444444444444],[0.31444444444444447],[1],[0],[0],[1.6552872709944495],['Target'],395590,001,2023-09-26_16h05.29.731,Visual Search_15 September,2023.1.3,None,
136,0,136,0,10,228.52641264599515,228.52641264599515,0.04393936900305562,"[-0.3211111111111111, -0.3277777777777778]","[0.11333333333333333, 0.09333333333333334]","[1, 1]","[0, 0]","[0, 0]","[1.2686605429989868, 1.825504867003474]",['Target'],395590,001,2023-09-26_16h05.29.731,Visual Search_15 September,2023.1.3,None,
137,0,137,0,5,230.37770587599516,230.37770587599516,0.025889031996484846,"[-0.49777777777777776, -0.48444444444444446]","[0.3488888888888889, 0.35333333333333333]","[1, 1]","[0, 0]","[0, 0]","[1.0424286010020296, 2.820114599002409]",['Target'],395590,001,2023-09-26_16h05.29.731,Visual Search_15 September,2023.1.3,None,
138,0,138,0,5,233.23248421699827,233.23248421699827,0.02753653399850009,[0.3988888888888889],[-0.09555555555555556],[1],[0],[0],[2.444725719993585],['Target'],395590,001,2023-09-26_16h05.29.731,Visual Search_15 September,2023.1.3,None,
139,0,139,0,10,235.73260222499812,235.73260222499812,0.043711890997656155,[-0.006666666666666667],[0.26666666666666666],[1],[0],[0],[1.7664360979979392],['Target'],395590,001,2023-09-26_16h05.29.731,Visual Search_15 September,2023.1.3,None,
140,0,140,0,5,237.52215078699373,237.52215078699373,0.023051191004924476,[-0.1988888888888889],[-0.46444444444444444],[1],[0],[0],[1.7591338269994594],['Target'],395590,001,2023-09-26_16h05.29.731,Visual Search_15 September,2023.1.3,None,
141,0,141,0,10,239.34216766600002,239.34216766600002,0.04332639100175584,[0.1388888888888889],[0.47],[1],[0],[0],[1.4577822380015277],['Target'],395590,001,2023-09-26_16h05.29.731,Visual Search_15 September,2023.1.3,None,
142,0,142,0,10,240.84843882199493,240.84843882199493,0.04204753900557989,[-0.30444444444444446],[-0.14666666666666667],[1],[0],[0],[2.520095384999877],['Target'],395590,001,2023-09-26_16h05.29.731,Visual Search_15 September,2023.1.3,None,
143,0,143,0,10,243.42194698399544,243.42194698399544,0.043408844001533,[-0.2911111111111111],[0.3333333333333333],[1],[0],[0],[1.3300620390000404],['Target'],395590,001,2023-09-26_16h05.29.731,Visual Search_15 September,2023.1.3,None,
144,0,144,0,10,244.79217479199724,244.79217479199724,0.04293375700217439,[0.058888888888888886],[0.024444444444444446],[1],[0],[0],[2.5696546399994986],['Target'],395590,001,2023-09-26_16h05.29.731,Visual Search_15 September,2023.1.3,None,
145,0,145,0,10,247.41820906099747,247.41820906099747,0.04374593999818899,[-0.12],[-0.18555555555555556],[1],[0],[0],[3.3305390930036083],['Target'],395590,001,2023-09-26_16h05.29.731,Visual Search_15 September,2023.1.3,None,
146,0,146,0,5,250.76823027299542,250.76823027299542,0.023855804996856023,[-0.14666666666666667],[-0.26555555555555554],[1],[0],[0],[1.0526784360044985],['Target'],395590,001,2023-09-26_16h05.29.731,Visual Search_15 September,2023.1.3,None,
147,0,147,0,5,251.85102562599786,251.85102562599786,0.023425086998031475,[0.46444444444444444],[0.37333333333333335],[1],[0],[0],[1.3535477030018228],['Target'],395590,001,2023-09-26_16h05.29.731,Visual Search_15 September,2023.1.3,None,
148,0,148,0,10,253.2718953769945,253.2718953769945,0.047301196995249484,[0.48333333333333334],[-0.06777777777777778],[1],[0],[0],[1.7860366759996396],['Target'],395590,001,2023-09-26_16h05.29.731,Visual Search_15 September,2023.1.3,None,
149,0,149,0,5,255.07415273699735,255.07415273699735,0.022895588997926097,[0.41555555555555557],[-0.36777777777777776],[1],[0],[0],[2.2792937449994497],['Target'],395590,001,2023-09-26_16h05.29.731,Visual Search_15 September,2023.1.3,None,
150,0,150,0,10,257.4090343969947,257.4090343969947,0.04287204900174402,[0.21444444444444444],[-0.22555555555555556],[1],[0],[0],[1.4388187079966883],['Target'],395590,001,2023-09-26_16h05.29.731,Visual Search_15 September,2023.1.3,None,
151,0,151,0,5,258.87074498799484,258.87074498799484,0.023278278000361752,[0.4066666666666667],[0.008888888888888889],[1],[0],[0],[1.6799771380028687],['Target'],395590,001,2023-09-26_16h05.29.731,Visual Search_15 September,2023.1.3,None,
152,0,152,0,10,260.6098834499935,260.6098834499935,0.047128635000262875,[-0.043333333333333335],[-0.03666666666666667],[1],[0],[0],[2.795782084001985],['Target'],395590,001,2023-09-26_16h05.29.731,Visual Search_15 September,2023.1.3,None,
153,0,153,0,10,263.4639856319991,263.4639856319991,0.044859105997602455,[-0.35777777777777775],[0.2922222222222222],[1],[0],[0],[1.0512469449968194],['Target'],395590,001,2023-09-26_16h05.29.731,Visual Search_15 September,2023.1.3,None,
154,0,154,0,10,264.5621677989984,264.5621677989984,0.042462729004910216,[0.31222222222222223],[-0.42333333333333334],[1],[0],[0],[2.4940820909978356],['Target'],395590,001,2023-09-26_16h05.29.731,Visual Search_15 September,2023.1.3,None,
155,0,155,0,10,267.10652051699435,267.10652051699435,0.04425399199681124,[0.4],[0.19555555555555557],[1],[0],[0],[1.032388286999776],['Target'],395590,001,2023-09-26_16h05.29.731,Visual Search_15 September,2023.1.3,None,
156,0,156,0,5,268.16387007199955,268.16387007199955,0.02453266899829032,[0.2],[0.1288888888888889],[1],[0],[0],[0.8260477629955858],['Target'],395590,001,2023-09-26_16h05.29.731,Visual Search_15 September,2023.1.3,None,
157,0,157,0,10,269.06002589399577,269.06002589399577,0.05571783900086302,"[-0.034444444444444444, -0.03222222222222222]","[0.4633333333333333, 0.4444444444444444]","[1, 1]","[0, 0]","[0, 0]","[1.2486486029956723, 1.754792029998498]",['Target'],395590,001,2023-09-26_16h05.29.731,Visual Search_15 September,2023.1.3,None,
158,0,158,0,10,270.8596867009983,270.8596867009983,0.04513494799903128,[0.16777777777777778],[0.21666666666666667],[1],[0],[0],[0.9099068209980032],['Target'],395590,001,2023-09-26_16h05.29.731,Visual Search_15 September,2023.1.3,None,
159,0,159,0,10,271.83944624799915,271.83944624799915,0.04871428699698299,[-0.35555555555555557],[-0.4677777777777778],[1],[0],[0],[2.9868965900022886],['Target'],395590,001,2023-09-26_16h05.29.731,Visual Search_15 September,2023.1.3,None,
160,0,160,0,10,274.8739318289954,274.8739318289954,0.046811120002530515,[0.08777777777777777],[0.14333333333333334],[1],[0],[0],[1.4089879789971747],['Target'],395590,001,2023-09-26_16h05.29.731,Visual Search_15 September,2023.1.3,None,
161,0,161,0,5,276.3021985959931,276.3021985959931,0.022730101001798175,[-0.4766666666666667],[-0.4822222222222222],[1],[0],[0],[2.8944838720053667],['Target'],395590,001,2023-09-26_16h05.29.731,Visual Search_15 September,2023.1.3,None,
162,0,162,0,10,279.25661787699937,279.25661787699937,0.04547717099922011,[0.1988888888888889],[0.4711111111111111],[1],[0],[0],[1.684270714999002],['Target'],395590,001,2023-09-26_16h05.29.731,Visual Search_15 September,2023.1.3,None,
163,0,163,0,10,280.9896550199992,280.9896550199992,0.04275170699838782,[0.042222222222222223],[-0.22],[1],[0],[0],[1.554074354993645],['Target'],395590,001,2023-09-26_16h05.29.731,Visual Search_15 September,2023.1.3,None,
164,0,164,0,10,282.6025983609943,282.6025983609943,0.04405445299926214,[0.2677777777777778],[0.24888888888888888],[1],[0],[0],[1.9631000939989462],['Target'],395590,001,2023-09-26_16h05.29.731,Visual Search_15 September,2023.1.3,None,
165,0,165,0,5,284.58812218699313,284.58812218699313,0.026302758997189812,[0.3111111111111111],[0.0033333333333333335],[1],[0],[0],[1.1094002220052062],['Target'],395590,001,2023-09-26_16h05.29.731,Visual Search_15 September,2023.1.3,None,
166,0,166,0,10,285.7600989299972,285.7600989299972,0.04309242199815344,"[-0.09777777777777778, -0.10444444444444445]","[0.4766666666666667, 0.44333333333333336]","[1, 1]","[0, 0]","[0, 0]","[1.252734027999395, 1.9690852990024723]",['Target'],395590,001,2023-09-26_16h05.29.731,Visual Search_15 September,2023.1.3,None,
167,0,167,0,5,287.7461868379978,287.7461868379978,0.0236297109950101,[0.11],[0.3566666666666667],[1],[0],[0],[1.038747777005483],['Target'],395590,001,2023-09-26_16h05.29.731,Visual Search_15 September,2023.1.3,None,
168,0,168,0,10,288.8455916489984,288.8455916489984,0.04727723399992101,[-0.16],[-0.11222222222222222],[1],[0],[0],[1.108849732998351],['Target'],395590,001,2023-09-26_16h05.29.731,Visual Search_15 September,2023.1.3,None,
169,0,169,0,10,290.0036430409964,290.0036430409964,0.043158216001756955,[0.41888888888888887],[0.4122222222222222],[1],[0],[0],[1.5997627889955766],['Target'],395590,001,2023-09-26_16h05.29.731,Visual Search_15 September,2023.1.3,None,
170,0,170,0,10,291.65705004299525,291.65705004299525,0.04343212399544427,[0.12666666666666668],[-0.04111111111111111],[1],[0],[0],[1.2902284840020002],['Target'],395590,001,2023-09-26_16h05.29.731,Visual Search_15 September,2023.1.3,None,
171,0,171,0,10,292.9916588569977,292.9916588569977,0.04227730900311144,[-0.39],[0.39111111111111113],[1],[0],[0],[2.037736999001936],['Target'],395590,001,2023-09-26_16h05.29.731,Visual Search_15 September,2023.1.3,None,
172,0,172,0,5,295.06028254999546,295.06028254999546,0.0238818750003702,[-0.02666666666666667],[-0.30777777777777776],[1],[0],[0],[1.9686697389988694],['Target'],395590,001,2023-09-26_16h05.29.731,Visual Search_15 September,2023.1.3,None,
173,0,173,0,10,297.08095636899816,297.08095636899816,0.04498239699751139,[0.3655555555555556],[0.4311111111111111],[1],[0],[0],[1.8383640039974125],['Target'],395590,001,2023-09-26_16h05.29.731,Visual Search_15 September,2023.1.3,None,
174,0,174,0,5,298.942707669994,298.942707669994,0.02351606500451453,[-0.37],[-0.16777777777777778],[1],[0],[0],[1.1806877599956351],['Target'],395590,001,2023-09-26_16h05.29.731,Visual Search_15 September,2023.1.3,None,
175,0,175,0,10,300.18291968799895,300.18291968799895,0.0416124769981252,[0.42],[0.02],[1],[0],[0],[1.565886379998119],['Target'],395590,001,2023-09-26_16h05.29.731,Visual Search_15 September,2023.1.3,None,
176,0,176,0,10,301.7991656969971,301.7991656969971,0.04281066200201167,[-0.34444444444444444],[0.2388888888888889],[1],[0],[0],[1.3748282140004449],['Target'],395590,001,2023-09-26_16h05.29.731,Visual Search_15 September,2023.1.3,None,
177,0,177,0,5,303.19180584799324,303.19180584799324,0.02308595499926014,[0.1111111111111111],[0.12333333333333334],[1],[0],[0],[1.23814939300064],['Target'],395590,001,2023-09-26_16h05.29.731,Visual Search_15 September,2023.1.3,None,
178,0,178,0,10,304.49305750799977,304.49305750799977,0.044340090003970545,[-0.41555555555555557],[-0.14444444444444443],[1],[0],[0],[1.2455908300034935],['Target'],395590,001,2023-09-26_16h05.29.731,Visual Search_15 September,2023.1.3,None,
179,0,179,0,5,305.75594747699506,305.75594747699506,0.022853162998217158,[0.32555555555555554],[0.057777777777777775],[1],[0],[0],[2.216256378000253],['Target'],395590,001,2023-09-26_16h05.29.731,Visual Search_15 September,2023.1.3,None,
180,0,180,0,5,308.00247944500006,308.00247944500006,0.023638560996914748,[0.4166666666666667],[0.41444444444444445],[1],[0],[0],[9.7560909810054],['Target'],395590,001,2023-09-26_16h05.29.731,Visual Search_15 September,2023.1.3,None,
181,0,181,0,10,317.8149177059968,317.8149177059968,0.042815628003154416,[-0.07111111111111111],[0.15222222222222223],[1],[0],[0],[2.0541769420015044],['Target'],395590,001,2023-09-26_16h05.29.731,Visual Search_15 September,2023.1.3,None,
182,0,182,0,5,319.89027137299854,319.89027137299854,0.02334794800117379,[0.37333333333333335],[-0.25222222222222224],[1],[0],[0],[1.7859624400007306],['Target'],395590,001,2023-09-26_16h05.29.731,Visual Search_15 September,2023.1.3,None,
183,0,183,0,10,321.73132722599985,321.73132722599985,0.04463972999656107,[0.3211111111111111],[-0.03333333333333333],[1],[0],[0],[1.3090646760028903],['Target'],395590,001,2023-09-26_16h05.29.731,Visual Search_15 September,2023.1.3,None,
184,0,184,0,10,323.0980633999934,323.0980633999934,0.042691214999649674,[0.02666666666666667],[0.36777777777777776],[1],[0],[0],[1.9506296719991951],['Target'],395590,001,2023-09-26_16h05.29.731,Visual Search_15 September,2023.1.3,None,
185,0,185,0,5,325.0654411899959,325.0654411899959,0.02287508900190005,[-0.43666666666666665],[0.4444444444444444],[1],[0],[0],[1.729483485003584],['Target'],395590,001,2023-09-26_16h05.29.731,Visual Search_15 September,2023.1.3,None,
186,0,186,0,10,326.85489447099826,326.85489447099826,0.04282857900398085,[-0.3811111111111111],[-0.052222222222222225],[1],[0],[0],[2.2158874470042065],['Target'],395590,001,2023-09-26_16h05.29.731,Visual Search_15 September,2023.1.3,None,
187,0,187,0,5,329.088164200999,329.088164200999,0.023589024000102654,[-0.023333333333333334],[-0.3811111111111111],[1],[0],[0],[1.8210526539987768],['Target'],395590,001,2023-09-26_16h05.29.731,Visual Search_15 September,2023.1.3,None,
188,0,188,0,5,330.9408245529994,330.9408245529994,0.022366755998518784,[0.2966666666666667],[-0.19],[1],[0],[0],[1.6132052729954012],['Target'],395590,001,2023-09-26_16h05.29.731,Visual Search_15 September,2023.1.3,None,
189,0,189,0,10,332.60806002699974,332.60806002699974,0.04181611000240082,[0.12666666666666668],[-0.1688888888888889],[1],[0],[0],[2.0023519400056102],['Target'],395590,001,2023-09-26_16h05.29.731,Visual Search_15 September,2023.1.3,None,
190,0,190,0,10,334.66028132599604,334.66028132599604,0.04302011400432093,[0.33555555555555555],[-0.38666666666666666],[1],[0],[0],[1.7770804789979593],['Target'],395590,001,2023-09-26_16h05.29.731,Visual Search_15 September,2023.1.3,None,
191,0,191,0,5,336.4613641159958,336.4613641159958,0.02302131000033114,[-0.45111111111111113],[-0.15333333333333332],[1],[0],[0],[1.6406421679930645],['Target'],395590,001,2023-09-26_16h05.29.731,Visual Search_15 September,2023.1.3,None,
192,0,192,0,10,338.1630154919985,338.1630154919985,0.04241666899906704,[-0.29333333333333333],[-0.17666666666666667],[1],[0],[0],[1.515717845002655],['Target'],395590,001,2023-09-26_16h05.29.731,Visual Search_15 September,2023.1.3,None,
193,0,193,0,5,339.6987250979946,339.6987250979946,0.023885624003014527,[-0.31],[-0.034444444444444444],[1],[0],[0],[1.2637453400020604],['Target'],395590,001,2023-09-26_16h05.29.731,Visual Search_15 September,2023.1.3,None,
194,0,194,0,10,341.02550535599585,341.02550535599585,0.0433576150026056,"[-0.30444444444444446, -0.2877777777777778, -0.28444444444444444]","[-0.45444444444444443, -0.4311111111111111, -0.45]","[1, 1, 1]","[0, 0, 0]","[0, 0, 0]","[1.555877225000586, 5.047909387998516, 5.8589100199969835]",['Target'],395590,001,2023-09-26_16h05.29.731,Visual Search_15 September,2023.1.3,None,
195,0,195,0,10,346.93228210499365,346.93228210499365,0.04306467300193617,[0.4822222222222222],[-0.33111111111111113],[1],[0],[0],[2.1955647130016587],['Target'],395590,001,2023-09-26_16h05.29.731,Visual Search_15 September,2023.1.3,None,
196,0,196,0,5,349.1457947109957,349.1457947109957,0.023842263995902613,[-0.024444444444444446],[0.24888888888888888],[1],[0],[0],[3.9082540119998157],['Target'],395590,001,2023-09-26_16h05.29.731,Visual Search_15 September,2023.1.3,None,
197,0,197,0,10,353.1157787399934,353.1157787399934,0.04651079800532898,[-0.06222222222222222],[0.4533333333333333],[1],[0],[0],[1.227020188998722],['Target'],395590,001,2023-09-26_16h05.29.731,Visual Search_15 September,2023.1.3,None,
198,0,198,0,5,354.3767259879969,354.3767259879969,0.03044675699493382,[0.4477777777777778],[0.2477777777777778],[1],[0],[0],[1.1648063769971486],['Target'],395590,001,2023-09-26_16h05.29.731,Visual Search_15 September,2023.1.3,None,
199,0,199,0,10,355.59189213999343,355.59189213999343,0.04325226100627333,"[0.44555555555555554, 0.44555555555555554]","[-0.4477777777777778, -0.4677777777777778]","[1, 1]","[0, 0]","[0, 0]","[2.541223804000765, 3.0746921120007755]",['Target'],395590,001,2023-09-26_16h05.29.731,Visual Search_15 September,2023.1.3,None,
