trials.thisRepN,trials.thisTrialN,trials.thisN,trials.thisIndex,number of distractors,target.started,mouse.started,mouse.x,mouse.y,mouse.leftButton,mouse.midButton,mouse.rightButton,mouse.time,mouse.clicked_name,participant,session,date,expName,psychopyVersion,frameRate,
0,0,0,0,5,25.181775250006467,0.019971458008512855,[0.4688888888888889],[-0.011111111111111112],[1],[0],[0],[1.9541297499090433],['target'],Mey,001,2023-09-26_15h22.45.493,visual_search,2023.1.3,None,
1,0,1,0,10,27.10816279205028,0.027907958952710032,"[-0.05444444444444444, -0.034444444444444444]","[-0.1322222222222222, -0.1322222222222222]","[1, 1]","[0, 0]","[0, 0]","[2.173840417061001, 2.6273329589748755]",['target'],Mey,001,2023-09-26_15h22.45.493,visual_search,2023.1.3,None,
2,0,2,0,10,29.764180417056195,0.026003957958891988,[-0.13555555555555557],[0.09888888888888889],[1],[0],[0],[1.325510541908443],['target'],Mey,001,2023-09-26_15h22.45.493,visual_search,2023.1.3,None,
3,0,3,0,10,31.118753125076182,0.026108832913450897,[-0.29],[0.2811111111111111],[1],[0],[0],[1.91172833298333],['target'],Mey,001,2023-09-26_15h22.45.493,visual_search,2023.1.3,None,
4,0,4,0,10,33.06070849997923,0.026122665964066982,"[-0.14444444444444443, -0.1411111111111111]","[-0.30444444444444446, -0.3411111111111111]","[1, 1]","[0, 0]","[0, 0]","[3.0406331249978393, 5.307404499966651]",['target'],Mey,001,2023-09-26_15h22.45.493,visual_search,2023.1.3,None,
5,0,5,0,10,38.39732579200063,0.026347625069320202,[0.008888888888888889],[0.31777777777777777],[1],[0],[0],[2.042589124990627],['target'],Mey,001,2023-09-26_15h22.45.493,visual_search,2023.1.3,None,
6,0,6,0,5,40.45707975002006,0.013936541974544525,[0.31666666666666665],[-0.30777777777777776],[1],[0],[0],[1.8129515419714153],['target'],Mey,001,2023-09-26_15h22.45.493,visual_search,2023.1.3,None,
7,0,7,0,5,42.28412379208021,0.013895291020162404,"[0.33111111111111113, 0.3188888888888889]","[0.15555555555555556, 0.1411111111111111]","[1, 1]","[0, 0]","[0, 0]","[1.6780377080431208, 2.3322789579397067]",['target'],Mey,001,2023-09-26_15h22.45.493,visual_search,2023.1.3,None,
8,0,8,0,10,44.65037416701671,0.026397458044812083,[-0.4111111111111111],[-0.0033333333333333335],[1],[0],[0],[1.6516732500167564],['target'],Mey,001,2023-09-26_15h22.45.493,visual_search,2023.1.3,None,
9,0,9,0,5,46.315596875036135,0.014003499993123114,"[0.2088888888888889, 0.2222222222222222]","[-0.19333333333333333, -0.19333333333333333]","[1, 1]","[0, 0]","[0, 0]","[1.4922466250136495, 2.2010566670214757]",['target'],Mey,001,2023-09-26_15h22.45.493,visual_search,2023.1.3,None,
10,0,10,0,5,48.53394258406479,0.01362749992404133,"[0.2222222222222222, -0.09222222222222222]","[-0.19333333333333333, 0.005555555555555556]","[1, 1]","[0, 0]","[0, 0]","[0.23318650003056973, 1.4578245000448078]",['target'],Mey,001,2023-09-26_15h22.45.493,visual_search,2023.1.3,None,
11,0,11,0,10,50.025195459020324,0.02604579192120582,[0.27111111111111114],[-0.012222222222222223],[1],[0],[0],[4.973681416944601],['target'],Mey,001,2023-09-26_15h22.45.493,visual_search,2023.1.3,None,
12,0,12,0,5,55.01273983402643,0.013975625042803586,[0.19555555555555557],[-0.2677777777777778],[1],[0],[0],[1.5625786250457168],['target'],Mey,001,2023-09-26_15h22.45.493,visual_search,2023.1.3,None,
13,0,13,0,5,56.59226208401378,0.013704458018764853,[0.20333333333333334],[-0.19],[1],[0],[0],[1.1083454160252586],['target'],Mey,001,2023-09-26_15h22.45.493,visual_search,2023.1.3,None,
14,0,14,0,5,57.71790570905432,0.013775708968751132,[-0.47555555555555556],[-0.02666666666666667],[1],[0],[0],[1.6727927909232676],['target'],Mey,001,2023-09-26_15h22.45.493,visual_search,2023.1.3,None,
15,0,15,0,10,59.4241645000875,0.02612766600213945,[0.43666666666666665],[0.027777777777777776],[1],[0],[0],[1.815885667107068],['target'],Mey,001,2023-09-26_15h22.45.493,visual_search,2023.1.3,None,
16,0,16,0,10,61.26997933408711,0.026092707994394004,"[0.2811111111111111, 0.2922222222222222]","[0.46555555555555556, 0.46555555555555556]","[1, 1]","[0, 0]","[0, 0]","[1.903700791997835, 3.475006917025894]",['target'],Mey,001,2023-09-26_15h22.45.493,visual_search,2023.1.3,None,
17,0,17,0,10,64.77488291705959,0.026039291988126934,"[0.2922222222222222, 0.48444444444444446]","[0.46555555555555556, -0.29777777777777775]","[1, 1]","[0, 0]","[0, 0]","[0.06616162497084588, 1.8944214170332998]",['target'],Mey,001,2023-09-26_15h22.45.493,visual_search,2023.1.3,None,
18,0,18,0,10,66.69837300002109,0.025844582938589156,"[-0.034444444444444444, -0.034444444444444444, -0.017777777777777778]","[-0.08777777777777777, -0.08777777777777777, -0.10888888888888888]","[1, 1, 1]","[0, 0, 0]","[0, 0, 0]","[1.6591973750619218, 1.7703716669930145, 2.496627292013727]",['target'],Mey,001,2023-09-26_15h22.45.493,visual_search,2023.1.3,None,
19,0,19,0,5,69.20899299997836,0.013927499996498227,"[-0.017777777777777778, 0.4166666666666667]","[-0.10888888888888888, 0.04111111111111111]","[1, 1]","[0, 0]","[0, 0]","[0.12613400002010167, 1.6921412500087172]",['target'],Mey,001,2023-09-26_15h22.45.493,visual_search,2023.1.3,None,
20,0,20,0,10,70.93504420900717,0.02653470798395574,"[0.4166666666666667, 0.13]","[0.04111111111111111, -0.2911111111111111]","[1, 1]","[0, 0]","[0, 0]","[0.11770383303519338, 2.2784266660455614]",['target'],Mey,001,2023-09-26_15h22.45.493,visual_search,2023.1.3,None,
21,0,21,0,10,73.24258591700345,0.02599058300256729,[0.3377777777777778],[0.24666666666666667],[1],[0],[0],[1.573518665973097],['target'],Mey,001,2023-09-26_15h22.45.493,visual_search,2023.1.3,None,
22,0,22,0,5,74.82979729201179,0.013787042000330985,"[-0.1988888888888889, -0.1988888888888889, -0.19555555555555557]","[-0.4722222222222222, -0.4722222222222222, -0.4811111111111111]","[1, 1, 1]","[0, 0, 0]","[0, 0, 0]","[2.529555374989286, 2.6619538749800995, 3.4226798749295995]",['target'],Mey,001,2023-09-26_15h22.45.493,visual_search,2023.1.3,None,
23,0,23,0,5,78.27067079208791,0.013976708054542542,[0.45444444444444443],[-0.25333333333333335],[1],[0],[0],[2.1718820000533015],['target'],Mey,001,2023-09-26_15h22.45.493,visual_search,2023.1.3,None,
24,0,24,0,10,80.47535937500652,0.02588641701731831,[-0.15888888888888889],[0.36444444444444446],[1],[0],[0],[2.2717179589672014],['target'],Mey,001,2023-09-26_15h22.45.493,visual_search,2023.1.3,None,
25,0,25,0,10,82.77637483400758,0.02630533289629966,"[0.25666666666666665, 0.2722222222222222]","[-0.39666666666666667, -0.39444444444444443]","[1, 1]","[0, 0]","[0, 0]","[2.443155707907863, 4.092806041939184]",['target'],Mey,001,2023-09-26_15h22.45.493,visual_search,2023.1.3,None,
26,0,26,0,5,86.88337587506976,0.01380387507379055,"[0.2722222222222222, -0.07111111111111111]","[-0.39444444444444443, -0.3511111111111111]","[1, 1]","[0, 0]","[0, 0]","[0.1518738749437034, 1.6934507089899853]",['target'],Mey,001,2023-09-26_15h22.45.493,visual_search,2023.1.3,None,
27,0,27,0,5,88.5938087090617,0.013757542008534074,"[-0.07111111111111111, -0.09888888888888889]","[-0.3511111111111111, -0.38555555555555554]","[1, 1]","[0, 0]","[0, 0]","[0.09096737497020513, 1.6662991249468178]",['target'],Mey,001,2023-09-26_15h22.45.493,visual_search,2023.1.3,None,
28,0,28,0,10,90.29275850008707,0.02568641596008092,[-0.1988888888888889],[0.3711111111111111],[1],[0],[0],[2.6487475419417024],['target'],Mey,001,2023-09-26_15h22.45.493,visual_search,2023.1.3,None,
29,0,29,0,10,92.97157420904841,0.026233167038299143,[-0.3188888888888889],[-0.034444444444444444],[1],[0],[0],[1.9408425410510972],['target'],Mey,001,2023-09-26_15h22.45.493,visual_search,2023.1.3,None,
30,0,30,0,5,94.9259857920697,0.013781541958451271,[0.10222222222222223],[0.08],[1],[0],[0],[1.9674393329769373],['target'],Mey,001,2023-09-26_15h22.45.493,visual_search,2023.1.3,None,
31,0,31,0,10,96.92664554202929,0.02611500001512468,[-0.3688888888888889],[0.0033333333333333335],[1],[0],[0],[1.5315860420232639],['target'],Mey,001,2023-09-26_15h22.45.493,visual_search,2023.1.3,None,
32,0,32,0,10,98.48803312506061,0.02612591697834432,[-0.37666666666666665],[-0.32],[1],[0],[0],[2.9078969579422846],['target'],Mey,001,2023-09-26_15h22.45.493,visual_search,2023.1.3,None,
33,0,33,0,5,101.41016149998177,0.014100291999056935,"[-0.37666666666666665, -0.31444444444444447]","[-0.32, -0.09111111111111111]","[1, 1]","[0, 0]","[0, 0]","[0.14902487501967698, 1.4756304159527645]",['target'],Mey,001,2023-09-26_15h22.45.493,visual_search,2023.1.3,None,
34,0,34,0,10,102.91913641698193,0.025980917038396,[0.2833333333333333],[-0.27111111111111114],[1],[0],[0],[2.16470616706647],['target'],Mey,001,2023-09-26_15h22.45.493,visual_search,2023.1.3,None,
35,0,35,0,5,105.09711879200768,0.013700833078473806,"[0.2833333333333333, 0.3488888888888889]","[-0.27111111111111114, 0.29555555555555557]","[1, 1]","[0, 0]","[0, 0]","[0.1452912089880556, 1.9619550000643358]",['target'],Mey,001,2023-09-26_15h22.45.493,visual_search,2023.1.3,None,
36,0,36,0,5,107.07621475006454,0.013839959050528705,"[0.3488888888888889, -0.09666666666666666]","[0.29555555555555557, 0.03]","[1, 1]","[0, 0]","[0, 0]","[0.12012170895468444, 1.509272416937165]",['target'],Mey,001,2023-09-26_15h22.45.493,visual_search,2023.1.3,None,
37,0,37,0,10,108.61885633401107,0.025946582900360227,"[-0.09666666666666666, -0.16777777777777778]","[0.03, -0.4577777777777778]","[1, 1]","[0, 0]","[0, 0]","[0.12326495791785419, 2.656630999990739]",['target'],Mey,001,2023-09-26_15h22.45.493,visual_search,2023.1.3,None,
38,0,38,0,5,111.28887450008187,0.013833250035531819,[0.22444444444444445],[0.4677777777777778],[1],[0],[0],[2.3716984590282664],['target'],Mey,001,2023-09-26_15h22.45.493,visual_search,2023.1.3,None,
39,0,39,0,5,113.67860362504143,0.01404779206495732,[0.03666666666666667],[-0.33444444444444443],[1],[0],[0],[1.7151781249558553],['target'],Mey,001,2023-09-26_15h22.45.493,visual_search,2023.1.3,None,
40,0,40,0,5,115.4112348749768,0.013938167016021907,[-0.3111111111111111],[0.24],[1],[0],[0],[1.7742526249494404],['target'],Mey,001,2023-09-26_15h22.45.493,visual_search,2023.1.3,None,
41,0,41,0,5,117.20289983402472,0.013950500055216253,"[-0.3111111111111111, 0.35333333333333333]","[0.24, 0.2922222222222222]","[1, 1]","[0, 0]","[0, 0]","[0.13312483299523592, 1.8494231660151854]",['target'],Mey,001,2023-09-26_15h22.45.493,visual_search,2023.1.3,None,
42,0,42,0,5,119.06953537499066,0.013946707942523062,"[0.35333333333333333, -0.15888888888888889]","[0.2922222222222222, 0.03]","[1, 1]","[0, 0]","[0, 0]","[0.1495582499774173, 1.7232484589330852]",['target'],Mey,001,2023-09-26_15h22.45.493,visual_search,2023.1.3,None,
43,0,43,0,5,120.81012370903045,0.013921208097599447,"[-0.15888888888888889, -0.2733333333333333, -0.27555555555555555]","[0.03, -0.42333333333333334, -0.4311111111111111]","[1, 1, 1]","[0, 0, 0]","[0, 0, 0]","[0.1258701659971848, 2.4866432909620926, 3.4371938330587]",['target'],Mey,001,2023-09-26_15h22.45.493,visual_search,2023.1.3,None,
44,0,44,0,5,124.26473966706544,0.013807417009957135,"[-0.27555555555555555, -0.48]","[-0.4311111111111111, -0.16666666666666666]","[1, 1]","[0, 0]","[0, 0]","[0.12923900003079325, 1.3878003329737112]",['target'],Mey,001,2023-09-26_15h22.45.493,visual_search,2023.1.3,None,
45,0,45,0,5,125.66998620901722,0.01402350002899766,[-0.3522222222222222],[0.39],[1],[0],[0],[1.3895455419551581],['target'],Mey,001,2023-09-26_15h22.45.493,visual_search,2023.1.3,None,
46,0,46,0,10,127.09389279200695,0.026472249999642372,"[-0.3522222222222222, -0.4766666666666667]","[0.39, -0.42333333333333334]","[1, 1]","[0, 0]","[0, 0]","[0.11561500001698732, 3.394124499987811]",['target'],Mey,001,2023-09-26_15h22.45.493,visual_search,2023.1.3,None,
47,0,47,0,5,130.50090125005227,0.013759959023445845,"[-0.4766666666666667, 0.027777777777777776, 0.042222222222222223]","[-0.42333333333333334, 0.44555555555555554, 0.43777777777777777]","[1, 1, 1]","[0, 0, 0]","[0, 0, 0]","[0.11049191700294614, 2.2096481670159847, 3.0753184999339283]",['target'],Mey,001,2023-09-26_15h22.45.493,visual_search,2023.1.3,None,
48,0,48,0,5,133.59371112508234,0.013782333000563085,[0.10555555555555556],[0.10777777777777778],[1],[0],[0],[2.132860583020374],['target'],Mey,001,2023-09-26_15h22.45.493,visual_search,2023.1.3,None,
49,0,49,0,5,135.74344391701743,0.013629374909214675,[-0.41],[0.2966666666666667],[1],[0],[0],[1.9837779579684138],['target'],Mey,001,2023-09-26_15h22.45.493,visual_search,2023.1.3,None,
50,0,50,0,5,137.74436712497845,0.013773040962405503,"[-0.41, -0.3988888888888889]","[0.2966666666666667, 0.10111111111111111]","[1, 1]","[0, 0]","[0, 0]","[0.10794712498318404, 1.4751493749208748]",['target'],Mey,001,2023-09-26_15h22.45.493,visual_search,2023.1.3,None,
51,0,51,0,5,139.23708550003357,0.013852374977432191,"[-0.3988888888888889, 0.4922222222222222]","[0.10111111111111111, -0.03222222222222222]","[1, 1]","[0, 0]","[0, 0]","[0.13938508403953165, 2.2163763750577345]",['target'],Mey,001,2023-09-26_15h22.45.493,visual_search,2023.1.3,None,
52,0,52,0,10,141.48661579203326,0.025870666024275124,"[0.4922222222222222, 0.4666666666666667]","[-0.03222222222222222, -0.006666666666666667]","[1, 1]","[0, 0]","[0, 0]","[0.10100100003182888, 2.1006114169722423]",['target'],Mey,001,2023-09-26_15h22.45.493,visual_search,2023.1.3,None,
53,0,53,0,10,143.61648362502456,0.02594774996396154,[0.2222222222222222],[-0.14333333333333334],[1],[0],[0],[2.4705172500107437],['target'],Mey,001,2023-09-26_15h22.45.493,visual_search,2023.1.3,None,
54,0,54,0,10,146.11633991706185,0.02594304201193154,[0.2644444444444444],[0.30333333333333334],[1],[0],[0],[2.5428122089942917],['target'],Mey,001,2023-09-26_15h22.45.493,visual_search,2023.1.3,None,
55,0,55,0,5,148.67282283399254,0.013767124968580902,"[0.2644444444444444, 0.19111111111111112]","[0.30333333333333334, 0.39222222222222225]","[1, 1]","[0, 0]","[0, 0]","[0.1136745410040021, 2.221864708000794]",['target'],Mey,001,2023-09-26_15h22.45.493,visual_search,2023.1.3,None,
56,0,56,0,10,150.92751325003337,0.025772084016352892,[0.11777777777777777],[0.47555555555555556],[1],[0],[0],[2.109400958986953],['target'],Mey,001,2023-09-26_15h22.45.493,visual_search,2023.1.3,None,
57,0,57,0,10,153.06658137508202,0.0259882080135867,"[0.11777777777777777, 0.44555555555555554]","[0.47555555555555556, -0.4855555555555556]","[1, 1]","[0, 0]","[0, 0]","[0.11831979197449982, 3.043012792011723]",['target'],Mey,001,2023-09-26_15h22.45.493,visual_search,2023.1.3,None,
58,0,58,0,5,156.12350429198705,0.013899499899707735,[-0.4822222222222222],[-0.057777777777777775],[1],[0],[0],[3.054774667019956],['target'],Mey,001,2023-09-26_15h22.45.493,visual_search,2023.1.3,None,
59,0,59,0,5,159.19524849997833,0.013660916942171752,[-0.39222222222222225],[0.05],[1],[0],[0],[1.2358223750488833],['target'],Mey,001,2023-09-26_15h22.45.493,visual_search,2023.1.3,None,
60,0,60,0,5,160.4482232920127,0.013614083058200777,[0.47555555555555556],[-0.07333333333333333],[1],[0],[0],[2.163438000017777],['target'],Mey,001,2023-09-26_15h22.45.493,visual_search,2023.1.3,None,
61,0,61,0,5,162.62863104208373,0.013564415974542499,"[-0.37222222222222223, -0.3322222222222222]","[0.06, 0.06]","[1, 1]","[0, 0]","[0, 0]","[1.865036458009854, 2.7650073749246076]",['target'],Mey,001,2023-09-26_15h22.45.493,visual_search,2023.1.3,None,
62,0,62,0,5,165.410824208986,0.013740875059738755,[0.16444444444444445],[0.0044444444444444444],[1],[0],[0],[1.9493252499960363],['target'],Mey,001,2023-09-26_15h22.45.493,visual_search,2023.1.3,None,
63,0,63,0,10,167.39328200009186,0.025896416045725346,[-0.41],[-0.1811111111111111],[1],[0],[0],[2.4323298749513924],['target'],Mey,001,2023-09-26_15h22.45.493,visual_search,2023.1.3,None,
64,0,64,0,5,169.83921091700904,0.013836459023877978,[-0.43333333333333335],[-0.028888888888888888],[1],[0],[0],[2.439241582993418],['target'],Mey,001,2023-09-26_15h22.45.493,visual_search,2023.1.3,None,
65,0,65,0,10,172.31172695907298,0.025948958937078714,"[-0.43333333333333335, 0.1511111111111111]","[-0.028888888888888888, 0.3466666666666667]","[1, 1]","[0, 0]","[0, 0]","[0.13175095792394131, 2.890047875000164]",['target'],Mey,001,2023-09-26_15h22.45.493,visual_search,2023.1.3,None,
66,0,66,0,5,175.21532929199748,0.013860958046279848,[-0.3466666666666667],[0.15444444444444444],[1],[0],[0],[1.6216510829981416],['target'],Mey,001,2023-09-26_15h22.45.493,visual_search,2023.1.3,None,
67,0,67,0,5,176.85410145903006,0.013731207931414247,[-0.2288888888888889],[0.06333333333333334],[1],[0],[0],[1.3332788749830797],['target'],Mey,001,2023-09-26_15h22.45.493,visual_search,2023.1.3,None,
68,0,68,0,10,178.22037362505216,0.02548145898617804,"[-0.2288888888888889, 0.4388888888888889]","[0.06333333333333334, 0.01888888888888889]","[1, 1]","[0, 0]","[0, 0]","[0.1397205829853192, 2.317994665936567]",['target'],Mey,001,2023-09-26_15h22.45.493,visual_search,2023.1.3,None,
69,0,69,0,10,180.5678188339807,0.026059750001877546,"[0.4388888888888889, 0.022222222222222223]","[0.01888888888888889, 0.31222222222222223]","[1, 1]","[0, 0]","[0, 0]","[0.13088304200209677, 3.7968880829866976]",['target'],Mey,001,2023-09-26_15h22.45.493,visual_search,2023.1.3,None,
70,0,70,0,5,184.37825041706674,0.013917500036768615,[-0.1922222222222222],[-0.20333333333333334],[1],[0],[0],[1.8928785829339176],['target'],Mey,001,2023-09-26_15h22.45.493,visual_search,2023.1.3,None,
71,0,71,0,5,186.28830616699997,0.013782541966065764,"[-0.1922222222222222, 0.4533333333333333]","[-0.20333333333333334, 0.2922222222222222]","[1, 1]","[0, 0]","[0, 0]","[0.11586949997581542, 1.898621542030014]",['target'],Mey,001,2023-09-26_15h22.45.493,visual_search,2023.1.3,None,
72,0,72,0,10,188.22026429208927,0.02614516601897776,"[0.4533333333333333, 0.16111111111111112]","[0.2922222222222222, 0.43222222222222223]","[1, 1]","[0, 0]","[0, 0]","[0.11462354206014425, 1.6451842091046274]",['target'],Mey,001,2023-09-26_15h22.45.493,visual_search,2023.1.3,None,
73,0,73,0,10,189.89491062506568,0.02555525000207126,"[0.16111111111111112, 0.39]","[0.43222222222222223, -0.39222222222222225]","[1, 1]","[0, 0]","[0, 0]","[0.11972370790317655, 2.732037082896568]",['target'],Mey,001,2023-09-26_15h22.45.493,visual_search,2023.1.3,None,
74,0,74,0,10,192.656213750015,0.025924708927050233,"[-0.2544444444444444, -0.2588888888888889]","[-0.3988888888888889, -0.42777777777777776]","[1, 1]","[0, 0]","[0, 0]","[1.891822624951601, 2.716725750011392]",['target'],Mey,001,2023-09-26_15h22.45.493,visual_search,2023.1.3,None,
75,0,75,0,10,195.40305366704706,0.026183416019193828,"[-0.2588888888888889, 0.15666666666666668]","[-0.42777777777777776, -0.43222222222222223]","[1, 1]","[0, 0]","[0, 0]","[0.1190701249288395, 2.319443790940568]",['target'],Mey,001,2023-09-26_15h22.45.493,visual_search,2023.1.3,None,
76,0,76,0,5,197.73597275000066,0.013732624938711524,[0.31555555555555553],[0.10555555555555556],[1],[0],[0],[1.5851129159564152],['target'],Mey,001,2023-09-26_15h22.45.493,visual_search,2023.1.3,None,
77,0,77,0,10,199.3536839170847,0.025965541950426996,"[0.31555555555555553, 0.5]","[0.10555555555555556, -0.32]","[1, 1]","[0, 0]","[0, 0]","[0.13165845803450793, 3.0348455000203103]",['target'],Mey,001,2023-09-26_15h22.45.493,visual_search,2023.1.3,None,
78,0,78,0,5,202.4027327920776,0.013835957972332835,[0.13111111111111112],[0.2411111111111111],[1],[0],[0],[1.3188362079672515],['target'],Mey,001,2023-09-26_15h22.45.493,visual_search,2023.1.3,None,
79,0,79,0,5,203.73881179199088,0.013764500035904348,"[0.13111111111111112, -0.03]","[0.2411111111111111, 0.3466666666666667]","[1, 1]","[0, 0]","[0, 0]","[0.1892980410484597, 2.7269022499676794]",['target'],Mey,001,2023-09-26_15h22.45.493,visual_search,2023.1.3,None,
80,0,80,0,5,206.48297070898116,0.013925874955020845,[-0.07666666666666666],[0.18888888888888888],[1],[0],[0],[1.646314917015843],['target'],Mey,001,2023-09-26_15h22.45.493,visual_search,2023.1.3,None,
81,0,81,0,10,208.16196570906322,0.025766875012777746,"[-0.07666666666666666, -0.05444444444444444, -0.06]","[0.18888888888888888, -0.3322222222222222, -0.3566666666666667]","[1, 1, 1]","[0, 0, 0]","[0, 0, 0]","[0.11942104098852724, 2.732184874941595, 3.6820771660422906]",['target'],Mey,001,2023-09-26_15h22.45.493,visual_search,2023.1.3,None,
82,0,82,0,5,211.85805516701657,0.013844000059179962,[-0.4033333333333333],[-0.3211111111111111],[1],[0],[0],[2.7129676670301706],['target'],Mey,001,2023-09-26_15h22.45.493,visual_search,2023.1.3,None,
83,0,83,0,5,214.5883017090382,0.013935416005551815,"[-0.4033333333333333, 0.12444444444444444]","[-0.3211111111111111, 0.44666666666666666]","[1, 1]","[0, 0]","[0, 0]","[0.20622374990489334, 2.100023041944951]",['target'],Mey,001,2023-09-26_15h22.45.493,visual_search,2023.1.3,None,
84,0,84,0,5,216.70572800002992,0.013640375109389424,"[-0.26555555555555554, -0.26555555555555554, -0.24444444444444444]","[-0.2544444444444444, -0.2544444444444444, -0.2588888888888889]","[1, 1, 1]","[0, 0, 0]","[0, 0, 0]","[1.9223355420399457, 2.088998791994527, 2.865151625010185]",['target'],Mey,001,2023-09-26_15h22.45.493,visual_search,2023.1.3,None,
85,0,85,0,10,219.6041729170829,0.025877707987092435,[-0.29555555555555557],[0.12222222222222222],[1],[0],[0],[1.6732560829259455],['target'],Mey,001,2023-09-26_15h22.45.493,visual_search,2023.1.3,None,
86,0,86,0,5,221.29093908402137,0.013687666971236467,"[-0.29555555555555557, -0.12444444444444444, -0.11555555555555555]","[0.12222222222222222, 0.18444444444444444, 0.1988888888888889]","[1, 1, 1]","[0, 0, 0]","[0, 0, 0]","[0.13881512498483062, 2.3041708749951795, 3.546945709036663]",['target'],Mey,001,2023-09-26_15h22.45.493,visual_search,2023.1.3,None,
87,0,87,0,5,224.8549705420155,0.013685957994312048,[-0.12333333333333334],[0.28888888888888886],[1],[0],[0],[1.333486708928831],['target'],Mey,001,2023-09-26_15h22.45.493,visual_search,2023.1.3,None,
88,0,88,0,10,226.22150733403396,0.02568412502296269,"[-0.12333333333333334, 0.33]","[0.28888888888888886, 0.23444444444444446]","[1, 1]","[0, 0]","[0, 0]","[0.11484499997459352, 1.9852489999029785]",['target'],Mey,001,2023-09-26_15h22.45.493,visual_search,2023.1.3,None,
89,0,89,0,10,228.23539875005372,0.02591824997216463,[0.12666666666666668],[0.4222222222222222],[1],[0],[0],[3.1973623340018094],['target'],Mey,001,2023-09-26_15h22.45.493,visual_search,2023.1.3,None,
90,0,90,0,10,231.46307720907498,0.02612116700038314,"[0.12666666666666668, 0.2011111111111111]","[0.4222222222222222, -0.3211111111111111]","[1, 1]","[0, 0]","[0, 0]","[0.11463608406484127, 2.990182875073515]",['target'],Mey,001,2023-09-26_15h22.45.493,visual_search,2023.1.3,None,
91,0,91,0,10,234.4828815420624,0.02604479098226875,[0.2011111111111111],[0.42333333333333334],[1],[0],[0],[1.8703004999551922],['target'],Mey,001,2023-09-26_15h22.45.493,visual_search,2023.1.3,None,
92,0,92,0,5,236.36675129202195,0.013650209060870111,[-0.26555555555555554],[-0.14444444444444443],[1],[0],[0],[1.562024625018239],['target'],Mey,001,2023-09-26_15h22.45.493,visual_search,2023.1.3,None,
93,0,93,0,5,237.94556045904756,0.013684125035069883,"[-0.26555555555555554, -0.06888888888888889]","[-0.14444444444444443, -0.41444444444444445]","[1, 1]","[0, 0]","[0, 0]","[0.1368167499313131, 1.8928931249538437]",['target'],Mey,001,2023-09-26_15h22.45.493,visual_search,2023.1.3,None,
94,0,94,0,10,239.87238237506244,0.02645012503489852,"[-0.06888888888888889, -0.34]","[-0.41444444444444445, -0.21444444444444444]","[1, 1]","[0, 0]","[0, 0]","[0.11438166594598442, 2.231182040995918]",['target'],Mey,001,2023-09-26_15h22.45.493,visual_search,2023.1.3,None,
95,0,95,0,10,242.13271100004204,0.02619583299383521,"[-0.3388888888888889, 0.18333333333333332]","[-0.21444444444444444, -0.2611111111111111]","[1, 1]","[0, 0]","[0, 0]","[0.17819095903541893, 1.9730237090261653]",['target'],Mey,001,2023-09-26_15h22.45.493,visual_search,2023.1.3,None,
96,0,96,0,5,244.11995204200502,0.013731125043705106,"[0.18333333333333332, -0.36]","[-0.2611111111111111, -0.044444444444444446]","[1, 1]","[0, 0]","[0, 0]","[0.3422456670086831, 1.418417957960628]",['target'],Mey,001,2023-09-26_15h22.45.493,visual_search,2023.1.3,None,
97,0,97,0,10,245.57113287504762,0.02572895900812,"[-0.36, 0.15333333333333332]","[-0.044444444444444446, 0.03777777777777778]","[1, 1]","[0, 0]","[0, 0]","[0.1285972079494968, 1.7853448749519885]",['target'],Mey,001,2023-09-26_15h22.45.493,visual_search,2023.1.3,None,
98,0,98,0,10,247.38602137507405,0.02591041591949761,[0.4111111111111111],[0.2733333333333333],[1],[0],[0],[2.1919823749922216],['target'],Mey,001,2023-09-26_15h22.45.493,visual_search,2023.1.3,None,
99,0,99,0,5,249.5915150840301,0.013625749968923628,[-0.08888888888888889],[0.29777777777777775],[1],[0],[0],[2.154110417002812],['target'],Mey,001,2023-09-26_15h22.45.493,visual_search,2023.1.3,None,
100,0,100,0,10,251.7786355840508,0.02600487507879734,[0.04111111111111111],[-0.47],[1],[0],[0],[2.3611790420254692],['target'],Mey,001,2023-09-26_15h22.45.493,visual_search,2023.1.3,None,
101,0,101,0,10,254.16949275007937,0.025912666926160455,"[0.04111111111111111, -0.45444444444444443, -0.11444444444444445]","[-0.47, 0.47444444444444445, 0.38222222222222224]","[1, 1, 1]","[0, 0, 0]","[0, 0, 0]","[0.13426195899955928, 3.859239084064029, 5.57552316703368]",['target'],Mey,001,2023-09-26_15h22.45.493,visual_search,2023.1.3,None,
102,0,102,0,5,259.7586115000304,0.013824041932821274,[0.18888888888888888],[-0.09888888888888889],[1],[0],[0],[2.737315124948509],['target'],Mey,001,2023-09-26_15h22.45.493,visual_search,2023.1.3,None,
103,0,103,0,10,262.52885754208546,0.025956750032491982,"[0.18888888888888888, 0.21666666666666667]","[-0.09888888888888889, -0.19333333333333333]","[1, 1]","[0, 0]","[0, 0]","[0.1441788749070838, 2.216165291960351]",['target'],Mey,001,2023-09-26_15h22.45.493,visual_search,2023.1.3,None,
104,0,104,0,5,264.75914125004783,0.014317541965283453,[0.03111111111111111],[0.19],[1],[0],[0],[1.6198870000662282],['target'],Mey,001,2023-09-26_15h22.45.493,visual_search,2023.1.3,None,
105,0,105,0,10,266.41226108407136,0.025938750011846423,[-0.14],[-0.4],[1],[0],[0],[2.0661117079434916],['target'],Mey,001,2023-09-26_15h22.45.493,visual_search,2023.1.3,None,
106,0,106,0,10,268.5077454589773,0.025713958078995347,[-0.11555555555555555],[-0.1988888888888889],[1],[0],[0],[1.2541878749616444],['target'],Mey,001,2023-09-26_15h22.45.493,visual_search,2023.1.3,None,
107,0,107,0,10,269.7909701250028,0.02576112502720207,"[-0.11555555555555555, -0.06111111111111111, -0.06111111111111111, -0.035555555555555556]","[-0.1988888888888889, 0.3977777777777778, 0.3977777777777778, 0.3977777777777778]","[1, 1, 1, 1]","[0, 0, 0, 0]","[0, 0, 0, 0]","[0.11590383399743587, 2.9099589170655236, 3.0542335000354797, 3.4496501251123846]",['target'],Mey,001,2023-09-26_15h22.45.493,visual_search,2023.1.3,None,
108,0,108,0,5,273.2539342920063,0.013865833054296672,"[0.18444444444444444, 0.18333333333333332]","[0.42777777777777776, 0.42777777777777776]","[1, 1]","[0, 0]","[0, 0]","[1.3093744579236954, 1.8687007079133764]",['target'],Mey,001,2023-09-26_15h22.45.493,visual_search,2023.1.3,None,
109,0,109,0,10,275.15550758398604,0.02592191705480218,[0.4077777777777778],[-0.07222222222222222],[1],[0],[0],[2.9057653750060126],['target'],Mey,001,2023-09-26_15h22.45.493,visual_search,2023.1.3,None,
110,0,110,0,10,278.09154829208273,0.026001291000284255,[-0.044444444444444446],[0.19555555555555557],[1],[0],[0],[1.5544592500664294],['target'],Mey,001,2023-09-26_15h22.45.493,visual_search,2023.1.3,None,
111,0,111,0,5,279.6588420420885,0.013845250010490417,[0.3],[-0.4088888888888889],[1],[0],[0],[2.703226958983578],['target'],Mey,001,2023-09-26_15h22.45.493,visual_search,2023.1.3,None,
112,0,112,0,5,282.37965891708154,0.014034250052645802,[0.29333333333333333],[0.2688888888888889],[1],[0],[0],[1.4263012920273468],['target'],Mey,001,2023-09-26_15h22.45.493,visual_search,2023.1.3,None,
113,0,113,0,5,283.8233900000341,0.013798875035718083,[0.4866666666666667],[-0.09666666666666666],[1],[0],[0],[2.1161173339933157],['target'],Mey,001,2023-09-26_15h22.45.493,visual_search,2023.1.3,None,
114,0,114,0,10,285.9725392500404,0.025885040988214314,[0.03666666666666667],[0.03333333333333333],[1],[0],[0],[1.389667334035039],['target'],Mey,001,2023-09-26_15h22.45.493,visual_search,2023.1.3,None,
115,0,115,0,5,287.3759296250064,0.013766792020760477,[-0.07],[-0.27555555555555555],[1],[0],[0],[1.3868420419748873],['target'],Mey,001,2023-09-26_15h22.45.493,visual_search,2023.1.3,None,
116,0,116,0,10,288.79500737506896,0.02547545894049108,[0.35888888888888887],[-0.035555555555555556],[1],[0],[0],[1.050152083975263],['target'],Mey,001,2023-09-26_15h22.45.493,visual_search,2023.1.3,None,
117,0,117,0,10,289.87493620906025,0.026191083015874028,[-0.3433333333333333],[0.3411111111111111],[1],[0],[0],[1.5648527500452474],['target'],Mey,001,2023-09-26_15h22.45.493,visual_search,2023.1.3,None,
118,0,118,0,5,291.4533520840341,0.01369166700169444,[0.30666666666666664],[0.06222222222222222],[1],[0],[0],[2.8870051249396056],['target'],Mey,001,2023-09-26_15h22.45.493,visual_search,2023.1.3,None,
119,0,119,0,10,294.3734744170215,0.02593458304181695,[-0.18333333333333332],[0.2388888888888889],[1],[0],[0],[1.2972487499937415],['target'],Mey,001,2023-09-26_15h22.45.493,visual_search,2023.1.3,None,
120,0,120,0,10,295.70035308401566,0.0259732500417158,"[0.30444444444444446, 0.30666666666666664]","[0.3333333333333333, 0.3711111111111111]","[1, 1]","[0, 0]","[0, 0]","[2.295111666084267, 3.0293601660523564]",['target'],Mey,001,2023-09-26_15h22.45.493,visual_search,2023.1.3,None,
121,0,121,0,5,298.7433448340744,0.01381079200655222,[-0.057777777777777775],[-0.27444444444444444],[1],[0],[0],[1.9028330829460174],['target'],Mey,001,2023-09-26_15h22.45.493,visual_search,2023.1.3,None,
122,0,122,0,5,300.66344450006727,0.013751249993219972,[0.21777777777777776],[0.4077777777777778],[1],[0],[0],[1.5201621250016615],['target'],Mey,001,2023-09-26_15h22.45.493,visual_search,2023.1.3,None,
123,0,123,0,10,302.21728112502024,0.02598616702016443,[0.006666666666666667],[-0.05444444444444444],[1],[0],[0],[2.2207819999894127],['target'],Mey,001,2023-09-26_15h22.45.493,visual_search,2023.1.3,None,
124,0,124,0,10,304.4674342920771,0.02596441691275686,[-0.4666666666666667],[0.13666666666666666],[1],[0],[0],[1.5289230829803273],['target'],Mey,001,2023-09-26_15h22.45.493,visual_search,2023.1.3,None,
125,0,125,0,10,306.0254009590717,0.025782875018194318,"[-0.011111111111111112, 0.3011111111111111]","[-0.022222222222222223, -0.025555555555555557]","[1, 1]","[0, 0]","[0, 0]","[2.0323608339531347, 3.732395833940245]",['target'],Mey,001,2023-09-26_15h22.45.493,visual_search,2023.1.3,None,
126,0,126,0,5,309.77144766703714,0.013797416002489626,[0.11555555555555555],[-0.3433333333333333],[1],[0],[0],[1.3082143749343231],['target'],Mey,001,2023-09-26_15h22.45.493,visual_search,2023.1.3,None,
127,0,127,0,10,311.112605667091,0.025781292002648115,[-0.4477777777777778],[0.48],[1],[0],[0],[1.8787363329902291],['target'],Mey,001,2023-09-26_15h22.45.493,visual_search,2023.1.3,None,
128,0,128,0,5,313.0046106670052,0.013782125082798302,[-0.34],[-0.37444444444444447],[1],[0],[0],[2.918818000005558],['target'],Mey,001,2023-09-26_15h22.45.493,visual_search,2023.1.3,None,
129,0,129,0,10,315.95678029197734,0.025732417008839548,[0.33555555555555555],[0.06777777777777778],[1],[0],[0],[1.818037916906178],['target'],Mey,001,2023-09-26_15h22.45.493,visual_search,2023.1.3,None,
130,0,130,0,5,317.78832354198676,0.01388641691301018,"[-0.3433333333333333, -0.3411111111111111, -0.31555555555555553]","[0.27444444444444444, 0.27444444444444444, 0.2733333333333333]","[1, 1, 1]","[0, 0, 0]","[0, 0, 0]","[1.1431883330224082, 1.5915623330511153, 2.059479875024408]",['target'],Mey,001,2023-09-26_15h22.45.493,visual_search,2023.1.3,None,
131,0,131,0,5,319.86495100008324,0.013547208975069225,"[0.39555555555555555, 0.41555555555555557]","[0.07888888888888888, 0.07888888888888888]","[1, 1]","[0, 0]","[0, 0]","[1.5592453330755234, 2.041638750000857]",['target'],Mey,001,2023-09-26_15h22.45.493,visual_search,2023.1.3,None,
132,0,132,0,10,321.9402108750073,0.026320750010199845,[-0.33111111111111113],[-0.45222222222222225],[1],[0],[0],[2.014417416998185],['target'],Mey,001,2023-09-26_15h22.45.493,visual_search,2023.1.3,None,
133,0,133,0,10,323.9843739590142,0.0260970420204103,[0.15888888888888889],[-0.4722222222222222],[1],[0],[0],[1.7210595000069588],['target'],Mey,001,2023-09-26_15h22.45.493,visual_search,2023.1.3,None,
134,0,134,0,10,325.7345774170244,0.025883458089083433,[-0.36333333333333334],[-0.021111111111111112],[1],[0],[0],[1.5242038330761716],['target'],Mey,001,2023-09-26_15h22.45.493,visual_search,2023.1.3,None,
135,0,135,0,10,327.2883650420699,0.025795666966587305,[-0.021111111111111112],[0.1111111111111111],[1],[0],[0],[2.5506601249799132],['target'],Mey,001,2023-09-26_15h22.45.493,visual_search,2023.1.3,None,
136,0,136,0,10,329.868124834029,0.025876375031657517,[0.21666666666666667],[0.3622222222222222],[1],[0],[0],[1.9281782920006663],['target'],Mey,001,2023-09-26_15h22.45.493,visual_search,2023.1.3,None,
137,0,137,0,5,331.8104653750779,0.013876000070013106,[0.3211111111111111],[-0.2788888888888889],[0],[0],[0],[2.288709833053872],['target'],Mey,001,2023-09-26_15h22.45.493,visual_search,2023.1.3,None,
138,0,138,0,5,334.11604462505784,0.013572041061706841,[0.4922222222222222],[0.29888888888888887],[1],[0],[0],[1.8907692499924451],['target'],Mey,001,2023-09-26_15h22.45.493,visual_search,2023.1.3,None,
139,0,139,0,5,336.0244050420588,0.01389070798177272,[0.40444444444444444],[0.28],[1],[0],[0],[2.2579112919047475],['target'],Mey,001,2023-09-26_15h22.45.493,visual_search,2023.1.3,None,
140,0,140,0,5,338.2992127920734,0.01356329198461026,[0.31333333333333335],[0.2922222222222222],[1],[0],[0],[1.0912901659030467],['target'],Mey,001,2023-09-26_15h22.45.493,visual_search,2023.1.3,None,
141,0,141,0,5,339.40770741703454,0.013700583018362522,[-0.01],[0.21444444444444444],[1],[0],[0],[2.8579728750046343],['target'],Mey,001,2023-09-26_15h22.45.493,visual_search,2023.1.3,None,
142,0,142,0,5,342.2824105840409,0.013871000031940639,[0.21],[0.27666666666666667],[1],[0],[0],[2.547990540973842],['target'],Mey,001,2023-09-26_15h22.45.493,visual_search,2023.1.3,None,
143,0,143,0,5,344.8476828340208,0.013686042046174407,[-0.09333333333333334],[-0.1511111111111111],[1],[0],[0],[1.6494625830091536],['target'],Mey,001,2023-09-26_15h22.45.493,visual_search,2023.1.3,None,
144,0,144,0,5,346.51416695897933,0.013662624987773597,[-0.4533333333333333],[-0.08222222222222222],[1],[0],[0],[1.5843067499808967],['target'],Mey,001,2023-09-26_15h22.45.493,visual_search,2023.1.3,None,
145,0,145,0,5,348.11560154205654,0.01355108292773366,[0.14],[0.4011111111111111],[1],[0],[0],[1.45772704097908],['target'],Mey,001,2023-09-26_15h22.45.493,visual_search,2023.1.3,None,
146,0,146,0,5,349.5904977089958,0.013543582987040281,[0.07888888888888888],[0.24222222222222223],[1],[0],[0],[1.0666296660201624],['target'],Mey,001,2023-09-26_15h22.45.493,visual_search,2023.1.3,None,
147,0,147,0,5,350.6745299170725,0.013622958096675575,[-0.19],[-0.02],[1],[0],[0],[1.4562384999589995],['target'],Mey,001,2023-09-26_15h22.45.493,visual_search,2023.1.3,None,
148,0,148,0,10,352.16367975005414,0.02586520800832659,"[0.5033333333333333, 0.48333333333333334]","[0.01888888888888889, 0.0044444444444444444]","[1, 1]","[0, 0]","[0, 0]","[3.908028083969839, 4.599903083988465]",['target'],Mey,001,2023-09-26_15h22.45.493,visual_search,2023.1.3,None,
149,0,149,0,5,356.77729783405084,0.013808208052068949,"[-0.0811111111111111, -0.0811111111111111]","[0.34444444444444444, 0.3422222222222222]","[1, 1]","[0, 0]","[0, 0]","[1.6034325830405578, 2.0700281250756234]",['target'],Mey,001,2023-09-26_15h22.45.493,visual_search,2023.1.3,None,
150,0,150,0,10,358.88106304209214,0.026199541985988617,[-0.25666666666666665],[-0.3522222222222222],[1],[0],[0],[2.6748638339340687],['target'],Mey,001,2023-09-26_15h22.45.493,visual_search,2023.1.3,None,
151,0,151,0,5,361.56943637505174,0.013700208044610918,[-0.2611111111111111],[0.32],[1],[0],[0],[1.3629569169133902],['target'],Mey,001,2023-09-26_15h22.45.493,visual_search,2023.1.3,None,
152,0,152,0,5,362.94933920900803,0.013552583055570722,[-0.45222222222222225],[0.41444444444444445],[1],[0],[0],[1.3246445830445737],['target'],Mey,001,2023-09-26_15h22.45.493,visual_search,2023.1.3,None,
153,0,153,0,10,364.30632120906375,0.025386958033777773,[-0.3522222222222222],[-0.12666666666666668],[1],[0],[0],[2.4257407910190523],['target'],Mey,001,2023-09-26_15h22.45.493,visual_search,2023.1.3,None,
154,0,154,0,10,366.76223975000903,0.026117207948118448,[0.39222222222222225],[-0.37],[1],[0],[0],[1.3456965000368655],['target'],Mey,001,2023-09-26_15h22.45.493,visual_search,2023.1.3,None,
155,0,155,0,5,368.12213354208507,0.014075000071898103,"[-0.4211111111111111, -0.4211111111111111]","[-0.26555555555555554, -0.2722222222222222]","[1, 1]","[0, 0]","[0, 0]","[1.5759812080068514, 2.4021202500443906]",['target'],Mey,001,2023-09-26_15h22.45.493,visual_search,2023.1.3,None,
156,0,156,0,5,370.541369625018,0.014041209011338651,[-0.45666666666666667],[-0.21555555555555556],[1],[0],[0],[0.9410573749337345],['target'],Mey,001,2023-09-26_15h22.45.493,visual_search,2023.1.3,None,
157,0,157,0,10,371.5158469590824,0.025953499949537218,[-0.31555555555555553],[-0.3522222222222222],[1],[0],[0],[1.4735703330952674],['target'],Mey,001,2023-09-26_15h22.45.493,visual_search,2023.1.3,None,
158,0,158,0,10,373.0185169170145,0.025856958935037255,"[0.26, 0.2588888888888889]","[-0.12333333333333334, -0.1411111111111111]","[1, 1]","[0, 0]","[0, 0]","[1.957969915936701, 2.370271124993451]",['target'],Mey,001,2023-09-26_15h22.45.493,visual_search,2023.1.3,None,
159,0,159,0,10,375.4185960839968,0.026161625050008297,[-0.2111111111111111],[0.09777777777777778],[1],[0],[0],[1.2633618749678135],['target'],Mey,001,2023-09-26_15h22.45.493,visual_search,2023.1.3,None,
160,0,160,0,5,376.69579966703895,0.013882500003091991,[-0.4311111111111111],[-0.42],[1],[0],[0],[1.5795161658897996],['target'],Mey,001,2023-09-26_15h22.45.493,visual_search,2023.1.3,None,
161,0,161,0,5,378.2923007090576,0.01362887502182275,[-0.06444444444444444],[-0.35888888888888887],[1],[0],[0],[1.5401832920033485],['target'],Mey,001,2023-09-26_15h22.45.493,visual_search,2023.1.3,None,
162,0,162,0,10,379.86538900004234,0.02567812509369105,"[-0.023333333333333334, -0.034444444444444444, -0.21333333333333335]","[-0.03111111111111111, -0.042222222222222223, -0.30777777777777776]","[1, 1, 1]","[0, 0, 0]","[0, 0, 0]","[1.2990557498997077, 2.273764041950926, 4.027334499987774]",['target'],Mey,001,2023-09-26_15h22.45.493,visual_search,2023.1.3,None,
163,0,163,0,10,383.9222216249909,0.026047209044918418,[0.25333333333333335],[-0.18333333333333332],[1],[0],[0],[2.0587592080701143],['target'],Mey,001,2023-09-26_15h22.45.493,visual_search,2023.1.3,None,
164,0,164,0,5,385.9943510000594,0.013802833971567452,[-0.13555555555555557],[0.48333333333333334],[1],[0],[0],[1.4551176669774577],['target'],Mey,001,2023-09-26_15h22.45.493,visual_search,2023.1.3,None,
165,0,165,0,5,387.467169709038,0.013888958026655018,[-0.4266666666666667],[0.20777777777777778],[1],[0],[0],[1.2574483749922365],['target'],Mey,001,2023-09-26_15h22.45.493,visual_search,2023.1.3,None,
166,0,166,0,5,388.74188966699876,0.01373674999922514,[0.23222222222222222],[0.4],[1],[0],[0],[1.3165091670816764],['target'],Mey,001,2023-09-26_15h22.45.493,visual_search,2023.1.3,None,
167,0,167,0,10,390.09127554204315,0.025845916010439396,[0.23777777777777778],[-0.2088888888888889],[1],[0],[0],[3.164548416971229],['target'],Mey,001,2023-09-26_15h22.45.493,visual_search,2023.1.3,None,
168,0,168,0,5,393.2692810000153,0.013752333004958928,"[0.006666666666666667, 0.01, 0.013333333333333334]","[-0.25222222222222224, -0.25333333333333335, -0.2544444444444444]","[1, 1, 1]","[0, 0, 0]","[0, 0, 0]","[0.9164508330868557, 1.4288992080837488, 1.9718531670514494]",['target'],Mey,001,2023-09-26_15h22.45.493,visual_search,2023.1.3,None,
169,0,169,0,5,395.2583514590515,0.013734749983996153,[-0.3477777777777778],[-0.1711111111111111],[1],[0],[0],[1.4994503749767318],['target'],Mey,001,2023-09-26_15h22.45.493,visual_search,2023.1.3,None,
170,0,170,0,5,396.774864875013,0.013668749947100878,[-0.06555555555555556],[-0.17444444444444446],[1],[0],[0],[1.2915373329306021],['target'],Mey,001,2023-09-26_15h22.45.493,visual_search,2023.1.3,None,
171,0,171,0,10,398.09958641708363,0.025698916986584663,"[0.41555555555555557, 0.4166666666666667, 0.4222222222222222]","[-0.2866666666666667, -0.3088888888888889, -0.33111111111111113]","[1, 1, 1]","[0, 0, 0]","[0, 0, 0]","[1.5098259160295129, 1.9737188749713823, 2.6264329160330817]",['target'],Mey,001,2023-09-26_15h22.45.493,visual_search,2023.1.3,None,
172,0,172,0,10,400.7552482089959,0.025917832972481847,"[-0.3322222222222222, -0.32666666666666666]","[0.24333333333333335, 0.24222222222222223]","[1, 1]","[0, 0]","[0, 0]","[1.7927940000081435, 2.2426133330445737]",['target'],Mey,001,2023-09-26_15h22.45.493,visual_search,2023.1.3,None,
173,0,173,0,5,403.01158775005024,0.01375566702336073,[-0.38666666666666666],[0.11888888888888889],[1],[0],[0],[1.7801361670717597],['target'],Mey,001,2023-09-26_15h22.45.493,visual_search,2023.1.3,None,
174,0,174,0,10,404.82462291698903,0.02586999989580363,[-0.4444444444444444],[0.44666666666666666],[1],[0],[0],[1.832021459005773],['target'],Mey,001,2023-09-26_15h22.45.493,visual_search,2023.1.3,None,
175,0,175,0,5,406.6704323340673,0.01393466698937118,[-0.14],[0.12],[1],[0],[0],[1.6049273329554126],['target'],Mey,001,2023-09-26_15h22.45.493,visual_search,2023.1.3,None,
176,0,176,0,10,408.308267250075,0.02589474990963936,[-0.17666666666666667],[-0.14777777777777779],[1],[0],[0],[1.5896417499752715],['target'],Mey,001,2023-09-26_15h22.45.493,visual_search,2023.1.3,None,
177,0,177,0,10,409.92685754201375,0.02536487497854978,[0.03222222222222222],[0.09222222222222222],[1],[0],[0],[1.2711742089595646],['target'],Mey,001,2023-09-26_15h22.45.493,visual_search,2023.1.3,None,
178,0,178,0,5,411.2118842500495,0.014005208038724959,[0.13555555555555557],[-0.15555555555555556],[1],[0],[0],[1.7299249999923632],['target'],Mey,001,2023-09-26_15h22.45.493,visual_search,2023.1.3,None,
179,0,179,0,10,412.97538116702344,0.026033832924440503,"[-0.06888888888888889, -0.057777777777777775]","[-0.0077777777777777776, -0.01]","[1, 1]","[0, 0]","[0, 0]","[1.6642095840070397, 2.2820572920609266]",['target'],Mey,001,2023-09-26_15h22.45.493,visual_search,2023.1.3,None,
180,0,180,0,10,415.2867233750876,0.025890791905112565,[0.31222222222222223],[0.38333333333333336],[1],[0],[0],[1.5533778329845518],['target'],Mey,001,2023-09-26_15h22.45.493,visual_search,2023.1.3,None,
181,0,181,0,10,416.8691292500589,0.025810583028942347,"[0.19777777777777777, 0.19555555555555557, 0.19, 0.18444444444444444]","[0.3322222222222222, 0.3322222222222222, 0.3288888888888889, 0.32666666666666666]","[1, 1, 1, 1]","[0, 0, 0, 0]","[0, 0, 0, 0]","[1.1061747919302434, 1.5702631250023842, 2.137511041946709, 2.62414045794867]",['target'],Mey,001,2023-09-26_15h22.45.493,visual_search,2023.1.3,None,
182,0,182,0,5,419.50727566704154,0.01389445795211941,[0.29555555555555557],[-0.01],[1],[0],[0],[1.3411561660468578],['target'],Mey,001,2023-09-26_15h22.45.493,visual_search,2023.1.3,None,
183,0,183,0,10,420.8814636670286,0.02580408297944814,[0.4088888888888889],[0.37],[1],[0],[0],[1.4663766250014305],['target'],Mey,001,2023-09-26_15h22.45.493,visual_search,2023.1.3,None,
184,0,184,0,10,422.37918687507045,0.027729958994314075,[0.06222222222222222],[0.06444444444444444],[1],[0],[0],[1.1654945829650387],['target'],Mey,001,2023-09-26_15h22.45.493,visual_search,2023.1.3,None,
185,0,185,0,5,423.55961950006895,0.01522725005634129,[0.27],[0.29444444444444445],[1],[0],[0],[0.9563542089890689],['target'],Mey,001,2023-09-26_15h22.45.493,visual_search,2023.1.3,None,
186,0,186,0,5,424.53307600005064,0.0135268330341205,"[0.08555555555555555, 0.08888888888888889, 0.10222222222222223]","[-0.23555555555555555, -0.23777777777777778, -0.2588888888888889]","[1, 1, 1]","[0, 0, 0]","[0, 0, 0]","[1.5879967499058694, 2.142734874971211, 2.870037292013876]",['target'],Mey,001,2023-09-26_15h22.45.493,visual_search,2023.1.3,None,
187,0,187,0,5,427.4201851669932,0.013785250019282103,[-0.43666666666666665],[0.3233333333333333],[1],[0],[0],[1.5119129579979926],['target'],Mey,001,2023-09-26_15h22.45.493,visual_search,2023.1.3,None,
188,0,188,0,5,428.9497746670386,0.013902249978855252,[-0.4022222222222222],[0.29888888888888887],[1],[0],[0],[0.943525500013493],['target'],Mey,001,2023-09-26_15h22.45.493,visual_search,2023.1.3,None,
189,0,189,0,10,429.9290146250278,0.028459208086133003,[-0.4011111111111111],[0.4866666666666667],[1],[0],[0],[1.7610047499183565],['target'],Mey,001,2023-09-26_15h22.45.493,visual_search,2023.1.3,None,
190,0,190,0,5,431.70384283398744,0.013871125061996281,[-0.04666666666666667],[0.4622222222222222],[1],[0],[0],[1.082556290901266],['target'],Mey,001,2023-09-26_15h22.45.493,visual_search,2023.1.3,None,
191,0,191,0,10,432.81927454203833,0.025693916948512197,[-0.3188888888888889],[0.1322222222222222],[1],[0],[0],[1.4882730420213193],['target'],Mey,001,2023-09-26_15h22.45.493,visual_search,2023.1.3,None,
192,0,192,0,10,434.3370305420831,0.025686125038191676,"[0.3566666666666667, 0.3477777777777778]","[-0.021111111111111112, -0.021111111111111112]","[1, 1]","[0, 0]","[0, 0]","[3.4959700419567525, 3.9568561669439077]",['target'],Mey,001,2023-09-26_15h22.45.493,visual_search,2023.1.3,None,
193,0,193,0,5,438.30804925004486,0.01432608300819993,"[-0.22555555555555556, -0.21888888888888888, -0.2111111111111111]","[-0.051111111111111114, -0.051111111111111114, -0.05333333333333334]","[1, 1, 1]","[0, 0, 0]","[0, 0, 0]","[1.9426944160368294, 2.38411620806437, 3.2418667500605807]",['target'],Mey,001,2023-09-26_15h22.45.493,visual_search,2023.1.3,None,
194,0,194,0,5,441.56725666706916,0.013769041979685426,[0.4677777777777778],[-0.24222222222222223],[1],[0],[0],[2.131796957924962],['target'],Mey,001,2023-09-26_15h22.45.493,visual_search,2023.1.3,None,
195,0,195,0,10,443.7319695840124,0.02575216698460281,"[-0.45666666666666667, -0.45666666666666667, -0.45666666666666667]","[0.3333333333333333, 0.3333333333333333, 0.3211111111111111]","[1, 1, 1]","[0, 0, 0]","[0, 0, 0]","[1.258552166982554, 1.736319874995388, 2.199583000037819]",['target'],Mey,001,2023-09-26_15h22.45.493,visual_search,2023.1.3,None,
196,0,196,0,10,445.9607608340448,0.025735875009559095,"[0.31666666666666665, 0.30333333333333334]","[-0.3711111111111111, -0.40555555555555556]","[1, 1]","[0, 0]","[0, 0]","[3.7161684159655124, 4.316255124984309]",['target'],Mey,001,2023-09-26_15h22.45.493,visual_search,2023.1.3,None,
197,0,197,0,10,450.3064962499775,0.026072582928463817,[-0.23555555555555555],[-0.1688888888888889],[1],[0],[0],[1.217695333994925],['target'],Mey,001,2023-09-26_15h22.45.493,visual_search,2023.1.3,None,
198,0,198,0,5,451.53792062506545,0.013768541044555604,[-0.2111111111111111],[0.2911111111111111],[1],[0],[0],[1.1791361659998074],['target'],Mey,001,2023-09-26_15h22.45.493,visual_search,2023.1.3,None,
199,0,199,0,10,452.74975337507203,0.025618249899707735,[-0.16777777777777778],[0.29444444444444445],[1],[0],[0],[0.8074592089978978],['target'],Mey,001,2023-09-26_15h22.45.493,visual_search,2023.1.3,None,
