reward_today,future_reward,delay,trials.thisRepN,trials.thisTrialN,trials.thisN,trials.thisIndex,thisRow.t,notes,insturctions.started,key_instruct.started,insturctions.stopped,key_instruct.keys,key_instruct.rt,key_instruct.duration,trial.started,polygon.started,choice.started,polygon.stopped,trial.stopped,response.keys,response.rt,response.duration,participant,session,date,expName,psychopyVersion,frameRate,expStart,
,,,,,,,,,0.0568110829917714,0.08930295798927546,9.245762791018933,space,9.040514208027162,0.11485554196406156,,,,,,,,,final_pushkar,001,2023-11-10_15h26.05.501,experiment,2023.2.2,None,2023-11-10 15h26.20.468853 +0530,
52,79,91,0,0,0,47,9.4048550829757,,,,,,,,9.277928291005082,9.4048550829757,10.2426661249483,10.398853124934249,12.611078749992885,t,2.351147250039503,None,final_pushkar,001,2023-11-10_15h26.05.501,experiment,2023.2.2,None,2023-11-10 15h26.20.468853 +0530,
42,61,112,0,1,1,72,12.631995250005275,,,,,,,,12.612409582943656,12.631995250005275,13.609576332964934,13.626662540948018,15.344502541003749,t,1.7176527089904994,None,final_pushkar,001,2023-11-10_15h26.05.501,experiment,2023.2.2,None,2023-11-10 15h26.20.468853 +0530,
70,137,64,0,2,2,56,15.374929999932647,,,,,,,,15.345206249970943,15.374929999932647,16.336033665924333,16.366901458008215,19.15089720801916,t,2.794243291951716,None,final_pushkar,001,2023-11-10_15h26.05.501,experiment,2023.2.2,None,2023-11-10 15h26.20.468853 +0530,
76,91,118,0,3,3,62,19.166883540921845,,,,,,,,19.15160066599492,19.166883540921845,20.150871958001517,20.15961412503384,21.668705290998332,t,1.5138224159600213,None,final_pushkar,001,2023-11-10_15h26.05.501,experiment,2023.2.2,None,2023-11-10 15h26.20.468853 +0530,
86,91,44,0,4,4,8,21.683774290955625,,,,,,,,21.669433500035666,21.683774290955625,22.668611750006676,22.676996249938384,24.27833450003527,t,1.604894999996759,None,final_pushkar,001,2023-11-10_15h26.05.501,experiment,2023.2.2,None,2023-11-10 15h26.20.468853 +0530,
5,9,44,0,5,5,35,24.293388874968514,,,,,,,,24.279026290983893,24.293388874968514,25.27722329099197,25.28336424997542,27.95110487495549,t,2.6622649169294164,None,final_pushkar,001,2023-11-10_15h26.05.501,experiment,2023.2.2,None,2023-11-10 15h26.20.468853 +0530,
91,105,56,0,6,6,95,27.9646851249272,,,,,,,,27.95180379098747,27.9646851249272,28.951966541004367,28.960662374971434,30.994721915922128,t,2.032703041913919,None,final_pushkar,001,2023-11-10_15h26.05.501,experiment,2023.2.2,None,2023-11-10 15h26.20.468853 +0530,
79,84,131,0,7,7,14,31.008698374964297,,,,,,,,30.99543162493501,31.008698374964297,31.993464207975194,32.00000991602428,34.56865879101679,t,2.565293583087623,None,final_pushkar,001,2023-11-10_15h26.05.501,experiment,2023.2.2,None,2023-11-10 15h26.20.468853 +0530,
81,94,112,0,8,8,46,34.58345483301673,,,,,,,,34.56948541593738,34.58345483301673,35.568255790974945,35.57736529095564,37.11137683293782,t,1.5378723329631612,None,final_pushkar,001,2023-11-10_15h26.05.501,experiment,2023.2.2,None,2023-11-10 15h26.20.468853 +0530,
49,60,89,0,9,9,4,37.12591025000438,,,,,,,,37.112112166010775,37.12591025000438,38.102259082952514,38.11592383298557,39.761925915954635,t,1.641496583004482,None,final_pushkar,001,2023-11-10_15h26.05.501,experiment,2023.2.2,None,2023-11-10 15h26.20.468853 +0530,
71,83,62,0,10,10,86,39.77024162502494,,,,,,,,39.76229074993171,39.77024162502494,40.75261641596444,40.760425374959596,41.95129745802842,t,1.17888770904392,None,final_pushkar,001,2023-11-10_15h26.05.501,experiment,2023.2.2,None,2023-11-10 15h26.20.468853 +0530,
10,31,69,0,11,11,50,41.966388165950775,,,,,,,,41.95203666598536,41.966388165950775,42.95250108302571,42.960357790929265,47.31841304094996,l,4.361160958069377,None,final_pushkar,001,2023-11-10_15h26.05.501,experiment,2023.2.2,None,2023-11-10 15h26.20.468853 +0530,
13,86,57,0,12,12,87,47.33309737499803,,,,,,,,47.319146333029494,47.33309737499803,48.320202874951065,48.32721537502948,49.412912374944426,l,1.0912659999448806,None,final_pushkar,001,2023-11-10_15h26.05.501,experiment,2023.2.2,None,2023-11-10 15h26.20.468853 +0530,
92,135,133,0,13,13,12,49.42765383294318,,,,,,,,49.41365416592453,49.42765383294318,50.41055037500337,50.41711729101371,51.95219762495253,t,1.5300422919681296,None,final_pushkar,001,2023-11-10_15h26.05.501,experiment,2023.2.2,None,2023-11-10 15h26.20.468853 +0530,
15,48,114,0,14,14,80,51.96683074999601,,,,,,,,51.95303062500898,51.96683074999601,52.95204449992161,52.96155554102734,55.21251999994274,l,2.25500187498983,None,final_pushkar,001,2023-11-10_15h26.05.501,experiment,2023.2.2,None,2023-11-10 15h26.20.468853 +0530,
89,161,107,0,15,15,60,55.227626999956556,,,,,,,,55.21321579092182,55.227626999956556,56.21069037495181,56.21696862496901,57.495246540987864,l,1.272900375071913,None,final_pushkar,001,2023-11-10_15h26.05.501,experiment,2023.2.2,None,2023-11-10 15h26.20.468853 +0530,
20,82,42,0,16,16,23,57.50995154096745,,,,,,,,57.49593991599977,57.50995154096745,58.48661537503358,58.5001777500147,59.546149375033565,l,1.0396581660024822,None,final_pushkar,001,2023-11-10_15h26.05.501,experiment,2023.2.2,None,2023-11-10 15h26.20.468853 +0530,
78,140,135,0,17,17,51,59.56107829103712,,,,,,,,59.54684829094913,59.56107829103712,60.544326124945655,60.55055262497626,61.819167874986306,l,1.2634768330026418,None,final_pushkar,001,2023-11-10_15h26.05.501,experiment,2023.2.2,None,2023-11-10 15h26.20.468853 +0530,
99,110,117,0,18,18,90,61.833569790935144,,,,,,,,61.819889207952656,61.833569790935144,62.82076445792336,62.82763900002465,65.01279779092874,t,2.1874898750102147,None,final_pushkar,001,2023-11-10_15h26.05.501,experiment,2023.2.2,None,2023-11-10 15h26.20.468853 +0530,
35,62,109,0,19,19,58,65.02750287496019,,,,,,,,65.01351870794315,65.02750287496019,66.01170141599141,66.01825595798437,69.38601775001734,t,3.362454624962993,None,final_pushkar,001,2023-11-10_15h26.05.501,experiment,2023.2.2,None,2023-11-10 15h26.20.468853 +0530,
11,61,65,0,20,20,30,69.40109408297576,,,,,,,,69.3867151249433,69.40109408297576,70.38652208296116,70.39435345795937,81.34616308298428,l,10.952709916979074,None,final_pushkar,001,2023-11-10_15h26.05.501,experiment,2023.2.2,None,2023-11-10 15h26.20.468853 +0530,
11,79,86,0,21,21,34,81.36118529096711,,,,,,,,81.34696512494702,81.36118529096711,82.34459041594528,82.35064750001766,83.70401279092766,l,1.347590500023216,None,final_pushkar,001,2023-11-10_15h26.05.501,experiment,2023.2.2,None,2023-11-10 15h26.20.468853 +0530,
82,92,139,0,22,22,42,83.71897487493698,,,,,,,,83.70470533298794,83.71897487493698,84.70280783297494,84.71210741600953,86.41978058300447,t,1.7009084159508348,None,final_pushkar,001,2023-11-10_15h26.05.501,experiment,2023.2.2,None,2023-11-10 15h26.20.468853 +0530,
33,101,48,0,23,23,82,86.43509541603271,,,,,,,,86.42050558293704,86.43509541603271,87.41970470792148,87.42819654103369,88.95225641597062,l,1.527021958027035,None,final_pushkar,001,2023-11-10_15h26.05.501,experiment,2023.2.2,None,2023-11-10 15h26.20.468853 +0530,
74,131,92,0,24,24,64,88.96690145798493,,,,,,,,88.95297720795497,88.96690145798493,89.94548083294649,89.96229699999094,91.60265729099046,l,1.6440063329646364,None,final_pushkar,001,2023-11-10_15h26.05.501,experiment,2023.2.2,None,2023-11-10 15h26.20.468853 +0530,
59,91,120,0,25,25,9,91.61658324999735,,,,,,,,91.60336249996908,91.61658324999735,92.60452533292118,92.61137579102069,94.89667866600212,l,2.287844541016966,None,final_pushkar,001,2023-11-10_15h26.05.501,experiment,2023.2.2,None,2023-11-10 15h26.20.468853 +0530,
18,86,40,0,26,26,93,94.91133404092398,,,,,,,,94.89738424995448,94.91133404092398,95.89534729102161,95.90162091597449,97.68710654100869,l,1.7820043750107288,None,final_pushkar,001,2023-11-10_15h26.05.501,experiment,2023.2.2,None,2023-11-10 15h26.20.468853 +0530,
81,141,112,0,27,27,15,97.70146508293692,,,,,,,,97.68781224999111,97.70146508293692,98.68718891602475,98.69590837496798,100.08642299997155,l,1.3929625420132652,None,final_pushkar,001,2023-11-10_15h26.05.501,experiment,2023.2.2,None,2023-11-10 15h26.20.468853 +0530,
87,102,103,0,28,28,97,100.10130383295473,,,,,,,,100.08718779101036,100.10130383295473,101.07870458299294,101.09523537498899,102.7866888330318,t,1.694298958987929,None,final_pushkar,001,2023-11-10_15h26.05.501,experiment,2023.2.2,None,2023-11-10 15h26.20.468853 +0530,
37,44,98,0,29,29,61,102.80136745795608,,,,,,,,102.78739087493159,102.80136745795608,103.78741420793813,103.79596308292821,105.44740579102654,t,1.6498344580177218,None,final_pushkar,001,2023-11-10_15h26.05.501,experiment,2023.2.2,None,2023-11-10 15h26.20.468853 +0530,
61,114,138,0,30,30,66,105.46233237499837,,,,,,,,105.44812908302993,105.46233237499837,106.44546208297834,106.4516669579316,108.38662158302031,l,1.9299735829699785,None,final_pushkar,001,2023-11-10_15h26.05.501,experiment,2023.2.2,None,2023-11-10 15h26.20.468853 +0530,
15,35,13,0,31,31,1,108.40120404097252,,,,,,,,108.38732462492771,108.40120404097252,109.37892883294262,109.39566441602074,111.41405179095455,l,2.020914874970913,None,final_pushkar,001,2023-11-10_15h26.05.501,experiment,2023.2.2,None,2023-11-10 15h26.20.468853 +0530,
82,92,137,0,32,32,91,111.42778754094616,,,,,,,,111.41475754103158,111.42778754094616,112.4121725410223,112.4185010829242,114.91349958302453,t,2.4866057080216706,None,final_pushkar,001,2023-11-10_15h26.05.501,experiment,2023.2.2,None,2023-11-10 15h26.20.468853 +0530,
20,26,77,0,33,33,78,114.92869029100984,,,,,,,,114.91425224998966,114.92869029100984,115.9122615000233,115.91861383302603,117.88693824992515,t,1.9656533329980448,None,final_pushkar,001,2023-11-10_15h26.05.501,experiment,2023.2.2,None,2023-11-10 15h26.20.468853 +0530,
4,40,111,0,34,34,33,117.902184125036,,,,,,,,117.88763841602486,117.902184125036,118.88679479097482,118.89569933293387,120.69774249999318,l,1.8015217499341816,None,final_pushkar,001,2023-11-10_15h26.05.501,experiment,2023.2.2,None,2023-11-10 15h26.20.468853 +0530,
97,105,66,0,35,35,26,120.71148066595197,,,,,,,,120.69845379097387,120.71148066595197,121.6960424160352,121.70265070802998,123.39839779096656,t,1.6943258329993114,None,final_pushkar,001,2023-11-10_15h26.05.501,experiment,2023.2.2,None,2023-11-10 15h26.20.468853 +0530,
12,52,113,0,36,36,70,123.41275474999566,,,,,,,,123.399101665942,123.41275474999566,124.39596162503585,124.40239166596439,127.86537612497341,l,3.4615216250531375,None,final_pushkar,001,2023-11-10_15h26.05.501,experiment,2023.2.2,None,2023-11-10 15h26.20.468853 +0530,
53,125,40,0,37,37,71,127.88081837503705,,,,,,,,127.86609587492421,127.88081837503705,128.86369066592306,128.87040920800064,131.048009290942,l,2.171688041999005,None,final_pushkar,001,2023-11-10_15h26.05.501,experiment,2023.2.2,None,2023-11-10 15h26.20.468853 +0530,
98,99,59,0,38,38,10,131.06317995802965,,,,,,,,131.0488614999922,131.06317995802965,132.04613629099913,132.0525885829702,142.93850191601086,t,10.882718582986854,None,final_pushkar,001,2023-11-10_15h26.05.501,experiment,2023.2.2,None,2023-11-10 15h26.20.468853 +0530,
85,94,89,0,39,39,18,142.95417495793663,,,,,,,,142.93922275002114,142.95417495793663,143.93918241595384,143.94607566599734,146.18149537499994,t,2.233353916089982,None,final_pushkar,001,2023-11-10_15h26.05.501,experiment,2023.2.2,None,2023-11-10 15h26.20.468853 +0530,
6,74,130,0,40,40,96,146.19710250000935,,,,,,,,146.18221858295146,146.19710250000935,147.18001783301588,147.18643674999475,149.18799124995712,l,1.9954243750544265,None,final_pushkar,001,2023-11-10_15h26.05.501,experiment,2023.2.2,None,2023-11-10 15h26.20.468853 +0530,
93,123,44,0,41,41,77,149.2023397909943,,,,,,,,149.188757124939,149.2023397909943,150.18035462498665,150.19676750001963,152.37180562503636,l,2.1806466669077054,None,final_pushkar,001,2023-11-10_15h26.05.501,experiment,2023.2.2,None,2023-11-10 15h26.20.468853 +0530,
73,132,95,0,42,42,63,152.38683450000826,,,,,,,,152.3724978750106,152.38683450000826,153.37268058303744,153.3803638749523,155.19830770802218,t,1.8160595829831436,None,final_pushkar,001,2023-11-10_15h26.05.501,experiment,2023.2.2,None,2023-11-10 15h26.20.468853 +0530,
93,145,55,0,43,43,98,155.212324291002,,,,,,,,155.19904329092242,155.212324291002,156.19695549993776,156.2033030409366,158.34324154094793,l,2.1282979999668896,None,final_pushkar,001,2023-11-10_15h26.05.501,experiment,2023.2.2,None,2023-11-10 15h26.20.468853 +0530,
95,109,72,0,44,44,76,158.356891790987,,,,,,,,158.34403608296998,158.356891790987,159.33908241603058,159.353770332993,161.35523212503176,t,2.0013460419140756,None,final_pushkar,001,2023-11-10_15h26.05.501,experiment,2023.2.2,None,2023-11-10 15h26.20.468853 +0530,
8,27,133,0,45,45,75,161.3700906659942,,,,,,,,161.35606791602913,161.3700906659942,162.35499058302958,162.36413333297241,164.30473483295646,l,1.9471404170617461,None,final_pushkar,001,2023-11-10_15h26.05.501,experiment,2023.2.2,None,2023-11-10 15h26.20.468853 +0530,
20,21,83,0,46,46,81,164.31989120796788,,,,,,,,164.3054520409787,164.31989120796788,165.29710091592278,165.31371595803648,167.37253012496512,t,2.0626560000237077,None,final_pushkar,001,2023-11-10_15h26.05.501,experiment,2023.2.2,None,2023-11-10 15h26.20.468853 +0530,
93,156,70,0,47,47,16,167.38722583302297,,,,,,,,167.3732280000113,167.38722583302297,168.37243008299265,168.3803993749898,170.48212475003675,l,2.10396837501321,None,final_pushkar,001,2023-11-10_15h26.05.501,experiment,2023.2.2,None,2023-11-10 15h26.20.468853 +0530,
9,53,136,0,48,48,85,170.49738641595468,,,,,,,,170.48290479101706,170.49738641595468,171.48065174999647,171.48691666603554,173.75564266601577,l,2.266173000098206,None,final_pushkar,001,2023-11-10_15h26.05.501,experiment,2023.2.2,None,2023-11-10 15h26.20.468853 +0530,
42,106,96,0,49,49,25,173.7703352079261,,,,,,,,173.75633712497074,173.7703352079261,174.7566072079353,174.7635324159637,176.63242395792622,l,1.866571250022389,None,final_pushkar,001,2023-11-10_15h26.05.501,experiment,2023.2.2,None,2023-11-10 15h26.20.468853 +0530,
23,52,91,0,50,50,31,176.64800666598603,,,,,,,,176.6331044579856,176.64800666598603,177.63080774992704,177.63718595798127,180.98860695795156,t,3.3463321661110967,None,final_pushkar,001,2023-11-10_15h26.05.501,experiment,2023.2.2,None,2023-11-10 15h26.20.468853 +0530,
46,87,129,0,51,51,73,181.00175008294173,,,,,,,,180.9892183749471,181.00175008294173,181.98074074997567,181.99823399994057,184.5054409999866,l,2.512069958029315,None,final_pushkar,001,2023-11-10_15h26.05.501,experiment,2023.2.2,None,2023-11-10 15h26.20.468853 +0530,
94,111,133,0,52,52,74,184.5190249159932,,,,,,,,184.5061754999915,184.5190249159932,185.49746616592165,185.51516370801255,188.62289324996527,t,3.1153870000271127,None,final_pushkar,001,2023-11-10_15h26.05.501,experiment,2023.2.2,None,2023-11-10 15h26.20.468853 +0530,
49,80,83,0,53,53,32,188.63789975002874,,,,,,,,188.6235932080308,188.63789975002874,189.6230312079424,189.6310823749518,192.7495417909231,l,3.1211903750663623,None,final_pushkar,001,2023-11-10_15h26.05.501,experiment,2023.2.2,None,2023-11-10 15h26.20.468853 +0530,
78,113,105,0,54,54,24,192.76289862499107,,,,,,,,192.7502232909901,192.76289862499107,193.7477334579453,193.75406987499446,195.8561515000183,l,2.098014375078492,None,final_pushkar,001,2023-11-10_15h26.05.501,experiment,2023.2.2,None,2023-11-10 15h26.20.468853 +0530,
96,146,108,0,55,55,17,195.87140674993861,,,,,,,,195.85685766593087,195.87140674993861,196.85551658296026,196.86446670803707,200.4555367080029,l,3.5943909999914467,None,final_pushkar,001,2023-11-10_15h26.05.501,experiment,2023.2.2,None,2023-11-10 15h26.20.468853 +0530,
14,41,48,0,56,56,29,200.46926483302377,,,,,,,,200.45623191597406,200.46926483302377,201.4557770829415,201.4645862079924,203.88271208293736,l,2.420751583063975,None,final_pushkar,001,2023-11-10_15h26.05.501,experiment,2023.2.2,None,2023-11-10 15h26.20.468853 +0530,
84,145,119,0,57,57,92,203.8981381249614,,,,,,,,203.88344699994195,203.8981381249614,204.87368045793846,204.88696412497666,211.07291324995458,t,6.179506166954525,None,final_pushkar,001,2023-11-10_15h26.05.501,experiment,2023.2.2,None,2023-11-10 15h26.20.468853 +0530,
99,135,54,0,58,58,84,211.0880877909949,,,,,,,,211.0736393330153,211.0880877909949,212.0650652910117,212.08237504097633,216.66689604101703,l,4.5891645409865305,None,final_pushkar,001,2023-11-10_15h26.05.501,experiment,2023.2.2,None,2023-11-10 15h26.20.468853 +0530,
90,117,107,0,59,59,37,216.6814667909639,,,,,,,,216.66759254096542,216.6814667909639,217.66584070795216,217.6721696659224,221.0725440409733,t,3.3949775830842555,None,final_pushkar,001,2023-11-10_15h26.05.501,experiment,2023.2.2,None,2023-11-10 15h26.20.468853 +0530,
74,111,129,0,60,60,13,221.086678499938,,,,,,,,221.0732625409728,221.086678499938,222.06546783295926,222.08177312498447,225.03358024999034,l,2.9512269999831915,None,final_pushkar,001,2023-11-10_15h26.05.501,experiment,2023.2.2,None,2023-11-10 15h26.20.468853 +0530,
73,91,62,0,61,61,20,225.048821415985,,,,,,,,225.0343177500181,225.048821415985,226.02457466593478,226.0384511250304,228.78376879100688,t,2.7360233339713886,None,final_pushkar,001,2023-11-10_15h26.05.501,experiment,2023.2.2,None,2023-11-10 15h26.20.468853 +0530,
33,103,62,0,62,62,48,228.79787229094654,,,,,,,,228.78447070799302,228.79787229094654,229.78214324999135,229.78859637503047,231.61707270797342,l,1.8230004579527304,None,final_pushkar,001,2023-11-10_15h26.05.501,experiment,2023.2.2,None,2023-11-10 15h26.20.468853 +0530,
37,81,49,0,63,63,36,231.63228783302475,,,,,,,,231.61777474998962,231.63228783302475,232.6155874580145,232.62193220795598,234.76698137493804,l,2.1361207080772147,None,final_pushkar,001,2023-11-10_15h26.05.501,experiment,2023.2.2,None,2023-11-10 15h26.20.468853 +0530,
33,72,55,0,64,64,52,234.78212058299687,,,,,,,,234.76768037502188,234.78212058299687,235.75833020801656,235.77204804099165,239.25656720797997,t,3.479015375021845,None,final_pushkar,001,2023-11-10_15h26.05.501,experiment,2023.2.2,None,2023-11-10 15h26.20.468853 +0530,
28,83,112,0,65,65,28,239.271373125026,,,,,,,,239.25727379100863,239.271373125026,240.25724620802794,240.26563658297528,242.3908824159298,l,2.130428917007521,None,final_pushkar,001,2023-11-10_15h26.05.501,experiment,2023.2.2,None,2023-11-10 15h26.20.468853 +0530,
40,55,62,0,66,66,3,242.4063711250201,,,,,,,,242.3915768750012,242.4063711250201,243.39170279097743,243.39944741595536,245.35195104102604,t,1.9584275000961497,None,final_pushkar,001,2023-11-10_15h26.05.501,experiment,2023.2.2,None,2023-11-10 15h26.20.468853 +0530,
63,99,57,0,67,67,54,245.36772866593674,,,,,,,,245.35281454096548,245.36772866593674,246.34927720797714,246.36678449995816,249.0173181249993,l,2.6548857919406146,None,final_pushkar,001,2023-11-10_15h26.05.501,experiment,2023.2.2,None,2023-11-10 15h26.20.468853 +0530,
94,131,103,0,68,68,41,249.03195058298297,,,,,,,,249.0180204999633,249.03195058298297,250.00823683303315,250.02183887502179,253.11747275001835,t,3.086979708983563,None,final_pushkar,001,2023-11-10_15h26.05.501,experiment,2023.2.2,None,2023-11-10 15h26.20.468853 +0530,
37,72,107,0,69,69,67,253.13184454094153,,,,,,,,253.11819075001404,253.13184454094153,254.1082782909507,254.12188554101158,257.0406755829463,l,2.916383042000234,None,final_pushkar,001,2023-11-10_15h26.05.501,experiment,2023.2.2,None,2023-11-10 15h26.20.468853 +0530,
44,47,43,0,70,70,79,257.05578900000546,,,,,,,,257.04139274999034,257.05578900000546,258.03323429101147,258.0497201249236,260.0408177500358,t,1.9985537499887869,None,final_pushkar,001,2023-11-10_15h26.05.501,experiment,2023.2.2,None,2023-11-10 15h26.20.468853 +0530,
73,94,103,0,71,71,49,260.0555610409938,,,,,,,,260.04152220801916,260.0555610409938,261.0407825410366,261.0497072909493,263.3679004579317,t,2.319281250005588,None,final_pushkar,001,2023-11-10_15h26.05.501,experiment,2023.2.2,None,2023-11-10 15h26.20.468853 +0530,
22,50,98,0,72,72,55,263.38313233293593,,,,,,,,263.3686022500042,263.38313233293593,264.36674912495073,264.37301987502724,266.8515142080141,l,2.471022874931805,None,final_pushkar,001,2023-11-10_15h26.05.501,experiment,2023.2.2,None,2023-11-10 15h26.20.468853 +0530,
67,75,119,0,73,73,5,266.8662078329362,,,,,,,,266.852207457996,266.8662078329362,267.84982045798097,267.85601737501565,270.41789904097095,t,2.558510374976322,None,final_pushkar,001,2023-11-10_15h26.05.501,experiment,2023.2.2,None,2023-11-10 15h26.20.468853 +0530,
83,86,110,0,74,74,39,270.4329766249284,,,,,,,,270.41859287500847,270.4329766249284,271.41692337498534,271.42277599999215,273.9350199579494,t,2.501783875050023,None,final_pushkar,001,2023-11-10_15h26.05.501,experiment,2023.2.2,None,2023-11-10 15h26.20.468853 +0530,
81,91,89,0,75,75,38,273.9502534159692,,,,,,,,273.9357828749344,273.9502534159692,274.93354745802935,274.9399663750082,277.90952379093505,t,2.967595790978521,None,final_pushkar,001,2023-11-10_15h26.05.501,experiment,2023.2.2,None,2023-11-10 15h26.20.468853 +0530,
86,157,50,0,76,76,40,277.9251007910352,,,,,,,,277.9103623749688,277.9251007910352,278.908995540929,278.91680195799563,281.6254181659315,l,2.711995374993421,None,final_pushkar,001,2023-11-10_15h26.05.501,experiment,2023.2.2,None,2023-11-10 15h26.20.468853 +0530,
58,129,135,0,77,77,21,281.63976687495597,,,,,,,,281.62611449998803,281.63976687495597,282.62464804097544,282.6335431250045,284.7855747080175,l,2.1421804589917883,None,final_pushkar,001,2023-11-10_15h26.05.501,experiment,2023.2.2,None,2023-11-10 15h26.20.468853 +0530,
11,30,7,0,78,78,0,284.80095937498845,,,,,,,,284.78626666602213,284.80095937498845,285.7837237910135,285.7898893329548,288.0422467079479,t,2.250444915960543,None,final_pushkar,001,2023-11-10_15h26.05.501,experiment,2023.2.2,None,2023-11-10 15h26.20.468853 +0530,
32,76,87,0,79,79,22,288.056507457979,,,,,,,,288.0429344580043,288.056507457979,289.0416700829519,289.05044545803685,291.7749911249848,l,2.7291899159317836,None,final_pushkar,001,2023-11-10_15h26.05.501,experiment,2023.2.2,None,2023-11-10 15h26.20.468853 +0530,
79,150,86,0,80,80,43,291.7891068329336,,,,,,,,291.775689541013,291.7891068329336,292.76741191593464,292.784564957954,296.0931696660118,l,3.3157275000121444,None,final_pushkar,001,2023-11-10_15h26.05.501,experiment,2023.2.2,None,2023-11-10 15h26.20.468853 +0530,
85,140,134,0,81,81,44,296.1099286249373,,,,,,,,296.09441549994517,296.1099286249373,297.0933372080326,297.1002701249672,300.52512883301824,l,3.429181999992579,None,final_pushkar,001,2023-11-10_15h26.05.501,experiment,2023.2.2,None,2023-11-10 15h26.20.468853 +0530,
5,63,106,0,82,82,57,300.54087037499994,,,,,,,,300.52590012492146,300.54087037499994,301.5260099580046,301.5340789159527,304.2356804580195,l,2.701463207951747,None,final_pushkar,001,2023-11-10_15h26.05.501,experiment,2023.2.2,None,2023-11-10 15h26.20.468853 +0530,
88,104,129,0,83,83,69,304.25044133292977,,,,,,,,304.2363834580174,304.25044133292977,305.2344457079889,305.2406782909529,308.45204004098196,t,3.2062269588932395,None,final_pushkar,001,2023-11-10_15h26.05.501,experiment,2023.2.2,None,2023-11-10 15h26.20.468853 +0530,
57,121,60,0,84,84,19,308.46755375002977,,,,,,,,308.45275462500285,308.46755375002977,309.45151058293413,309.45793999999296,311.28556591598317,t,1.8249831249704584,None,final_pushkar,001,2023-11-10_15h26.05.501,experiment,2023.2.2,None,2023-11-10 15h26.20.468853 +0530,
82,91,72,0,85,85,11,311.2999750409508,,,,,,,,311.2862853750121,311.2999750409508,312.28438929095864,312.2907111250097,314.7431184579618,t,2.4482066250639036,None,final_pushkar,001,2023-11-10_15h26.05.501,experiment,2023.2.2,None,2023-11-10 15h26.20.468853 +0530,
35,100,40,0,86,86,94,314.75725695793517,,,,,,,,314.7438108329661,314.75725695793517,315.7438684159424,315.7509502079338,317.5195933750365,l,1.764935625018552,None,final_pushkar,001,2023-11-10_15h26.05.501,experiment,2023.2.2,None,2023-11-10 15h26.20.468853 +0530,
79,134,67,0,87,87,59,317.53492037497927,,,,,,,,317.5202781249536,317.53492037497927,318.5185937079368,318.5248349159956,323.08705400000326,l,4.560850500012748,None,final_pushkar,001,2023-11-10_15h26.05.501,experiment,2023.2.2,None,2023-11-10 15h26.20.468853 +0530,
26,79,113,0,88,88,88,323.1008103749482,,,,,,,,323.08776704093907,323.1008103749482,324.08486104093026,324.09150979097467,326.15905212494545,l,2.062260250095278,None,final_pushkar,001,2023-11-10_15h26.05.501,experiment,2023.2.2,None,2023-11-10 15h26.20.468853 +0530,
27,50,21,0,89,89,2,326.17427395796403,,,,,,,,326.1597545410041,326.17427395796403,327.1515882909298,327.1682341659907,329.5427665000316,t,2.381347959046252,None,final_pushkar,001,2023-11-10_15h26.05.501,experiment,2023.2.2,None,2023-11-10 15h26.20.468853 +0530,
29,33,137,0,90,90,89,329.5580050830031,,,,,,,,329.54346125002485,329.5580050830031,330.53487800003495,330.55229966598563,333.97026524995454,t,3.4221087499754503,None,final_pushkar,001,2023-11-10_15h26.05.501,experiment,2023.2.2,None,2023-11-10 15h26.20.468853 +0530,
78,80,162,0,91,91,6,333.985516707995,,,,,,,,333.97096562501974,333.985516707995,334.9684883329319,334.9748243750073,336.8029745409731,t,1.8234785839449614,None,final_pushkar,001,2023-11-10_15h26.05.501,experiment,2023.2.2,None,2023-11-10 15h26.20.468853 +0530,
86,118,108,0,92,92,45,336.818072999944,,,,,,,,336.80366758303717,336.818072999944,337.7942418330349,337.8083575000055,339.82678799994756,t,2.011655749985948,None,final_pushkar,001,2023-11-10_15h26.05.501,experiment,2023.2.2,None,2023-11-10 15h26.20.468853 +0530,
41,80,85,0,93,93,68,339.8421251659747,,,,,,,,339.82757783296984,339.8421251659747,340.8268536659889,340.83507470798213,344.10974129103124,l,3.280257000005804,None,final_pushkar,001,2023-11-10_15h26.05.501,experiment,2023.2.2,None,2023-11-10 15h26.20.468853 +0530,
25,89,129,0,94,94,27,344.12408816593233,,,,,,,,344.11045037501026,344.12408816593233,345.1098072499735,345.1185215410078,347.3934242079267,l,2.2809161249315366,None,final_pushkar,001,2023-11-10_15h26.05.501,experiment,2023.2.2,None,2023-11-10 15h26.20.468853 +0530,
10,61,58,0,95,95,53,347.40778970799875,,,,,,,,347.3941276249243,347.40778970799875,348.3942916250089,348.40205583302304,350.98698849999346,l,2.5853361659683287,None,final_pushkar,001,2023-11-10_15h26.05.501,experiment,2023.2.2,None,2023-11-10 15h26.20.468853 +0530,
62,120,125,0,96,96,83,351.0022895409493,,,,,,,,350.987717290991,351.0022895409493,351.98539941594936,351.99157620803453,354.8767331249546,l,2.879681042046286,None,final_pushkar,001,2023-11-10_15h26.05.501,experiment,2023.2.2,None,2023-11-10 15h26.20.468853 +0530,
17,56,105,0,97,97,65,354.8918707909761,,,,,,,,354.87744708301034,354.8918707909761,355.86917199997697,355.8855609999737,358.11037733301055,l,2.230629084049724,None,final_pushkar,001,2023-11-10_15h26.05.501,experiment,2023.2.2,None,2023-11-10 15h26.20.468853 +0530,
1,165,122,0,98,98,7,358.1259165829979,,,,,,,,358.11107699992135,358.1259165829979,359.1109853750095,359.1190380830085,364.06123862497043,l,4.946520500001498,None,final_pushkar,001,2023-11-10_15h26.05.501,experiment,2023.2.2,None,2023-11-10 15h26.20.468853 +0530,
