pos,correct_response,condition,counter_balancing.thisRepN,counter_balancing.thisTrialN,counter_balancing.thisN,counter_balancing.thisIndex,trials.thisRepN,trials.thisTrialN,trials.thisN,trials.thisIndex,trials_2.thisRepN,trials_2.thisTrialN,trials_2.thisN,trials_2.thisIndex,thisRow.t,notes,instruction.started,instruction.stopped,key_resp_2.keys,key_resp_2.rt,key_resp_2.duration,trial.started,key_resp.started,trial.stopped,key_resp.keys,key_resp.corr,key_resp.rt,key_resp.duration,final.started,key_resp_3.started,final.stopped,key_resp_3.keys,key_resp_3.corr,key_resp_3.rt,key_resp_3.duration,participant,session,date,expName,psychopyVersion,frameRate,expStart
,,,,,,,,,,,,,,,,,0.0129005,7.741257584,space,7.690773875,None,,,,,,,,,,,,,,,final_pushkar,1,2023-10-16_08h14.12.312,oct 9 class,2023.2.2,120.356919,2023-10-16 08h14.23.043823 +0530
-50,x,random,0,0,0,0,0,0,0,1,,,,,7.814104709,,,,,,,7.768146584,0.60358125,9.870129542,x,1,1.514687875,None,,,,,,,,final_pushkar,1,2023-10-16_08h14.12.312,oct 9 class,2023.2.2,120.356919,2023-10-16 08h14.23.043823 +0530
50,c,random,0,0,0,0,0,1,1,2,,,,,9.877331834,,,,,,,9.871302125,0.605139584,11.62622442,c,1,1.144921209,None,,,,,,,,final_pushkar,1,2023-10-16_08h14.12.312,oct 9 class,2023.2.2,120.356919,2023-10-16 08h14.23.043823 +0530
150,v,random,0,0,0,0,0,2,2,3,,,,,11.6345365,,,,,,,11.62709042,0.599843334,13.13383029,v,1,0.903051041,None,,,,,,,,final_pushkar,1,2023-10-16_08h14.12.312,oct 9 class,2023.2.2,120.356919,2023-10-16 08h14.23.043823 +0530
50,c,random,0,0,0,0,0,3,3,2,,,,,13.14216671,,,,,,,13.13474292,0.609002333,14.62606846,c,1,0.878299209,None,,,,,,,,final_pushkar,1,2023-10-16_08h14.12.312,oct 9 class,2023.2.2,120.356919,2023-10-16 08h14.23.043823 +0530
-150,z,random,0,0,0,0,1,0,4,0,,,,,14.63431758,,,,,,,14.62691888,0.604246,16.05227604,z,1,0.81585075,None,,,,,,,,final_pushkar,1,2023-10-16_08h14.12.312,oct 9 class,2023.2.2,120.356919,2023-10-16 08h14.23.043823 +0530
-50,x,random,0,0,0,0,1,1,5,1,,,,,16.07619054,,,,,,,16.05329571,0.606553625,17.37619471,x,1,0.710370167,None,,,,,,,,final_pushkar,1,2023-10-16_08h14.12.312,oct 9 class,2023.2.2,120.356919,2023-10-16 08h14.23.043823 +0530
-150,z,random,0,0,0,0,1,2,6,0,,,,,17.38434217,,,,,,,17.37704717,0.603947292,18.57756163,z,1,0.595441291,None,,,,,,,,final_pushkar,1,2023-10-16_08h14.12.312,oct 9 class,2023.2.2,120.356919,2023-10-16 08h14.23.043823 +0530
50,c,random,0,0,0,0,1,3,7,2,,,,,18.58595142,,,,,,,18.57838871,0.603011,19.92754588,c,1,0.73781575,None,,,,,,,,final_pushkar,1,2023-10-16_08h14.12.312,oct 9 class,2023.2.2,120.356919,2023-10-16 08h14.23.043823 +0530
150,v,random,0,0,0,0,2,0,8,3,,,,,19.93710458,,,,,,,19.92856517,0.603018459,21.07101438,v,1,0.531994333,None,,,,,,,,final_pushkar,1,2023-10-16_08h14.12.312,oct 9 class,2023.2.2,120.356919,2023-10-16 08h14.23.043823 +0530
-150,z,random,0,0,0,0,2,1,9,0,,,,,21.08061388,,,,,,,21.07200283,0.60503525,22.01032129,z,1,0.332561,None,,,,,,,,final_pushkar,1,2023-10-16_08h14.12.312,oct 9 class,2023.2.2,120.356919,2023-10-16 08h14.23.043823 +0530
-150,z,random,0,0,0,0,2,2,10,0,,,,,22.02636929,,,,,,,22.01144408,0.615804084,23.06044979,z,1,0.428152292,None,,,,,,,,final_pushkar,1,2023-10-16_08h14.12.312,oct 9 class,2023.2.2,120.356919,2023-10-16 08h14.23.043823 +0530
-50,x,random,0,0,0,0,2,3,11,1,,,,,23.07828067,,,,,,,23.06127975,0.599281834,24.21037267,x,1,0.529686791,None,,,,,,,,final_pushkar,1,2023-10-16_08h14.12.312,oct 9 class,2023.2.2,120.356919,2023-10-16 08h14.23.043823 +0530
-50,x,random,0,0,0,0,3,0,12,1,,,,,24.22702179,,,,,,,24.21128275,0.603764583,25.45465896,x,1,0.638059291,None,,,,,,,,final_pushkar,1,2023-10-16_08h14.12.312,oct 9 class,2023.2.2,120.356919,2023-10-16 08h14.23.043823 +0530
150,v,random,0,0,0,0,3,1,13,3,,,,,25.46401479,,,,,,,25.45566729,0.607582,26.57316379,v,1,0.498699625,None,,,,,,,,final_pushkar,1,2023-10-16_08h14.12.312,oct 9 class,2023.2.2,120.356919,2023-10-16 08h14.23.043823 +0530
-150,z,random,0,0,0,0,3,2,14,0,,,,,26.58091554,,,,,,,26.57433917,0.603118125,27.58691175,z,1,0.403827084,None,,,,,,,,final_pushkar,1,2023-10-16_08h14.12.312,oct 9 class,2023.2.2,120.356919,2023-10-16 08h14.23.043823 +0530
-50,x,random,0,0,0,0,3,3,15,1,,,,,27.59682733,,,,,,,27.58807196,0.605564125,28.76229658,x,1,0.56787225,None,,,,,,,,final_pushkar,1,2023-10-16_08h14.12.312,oct 9 class,2023.2.2,120.356919,2023-10-16 08h14.23.043823 +0530
150,v,random,0,0,0,0,4,0,16,3,,,,,28.77111913,,,,,,,28.76319258,0.607557041,29.84511188,v,1,0.468851667,None,,,,,,,,final_pushkar,1,2023-10-16_08h14.12.312,oct 9 class,2023.2.2,120.356919,2023-10-16 08h14.23.043823 +0530
50,c,random,0,0,0,0,4,1,17,2,,,,,29.85401808,,,,,,,29.84601913,0.602496666,31.16059496,c,1,0.704437625,None,,,,,,,,final_pushkar,1,2023-10-16_08h14.12.312,oct 9 class,2023.2.2,120.356919,2023-10-16 08h14.23.043823 +0530
-50,x,random,0,0,0,0,4,2,18,1,,,,,31.16850329,,,,,,,31.16142188,0.603339792,33.35524708,x,1,1.580078709,None,,,,,,,,final_pushkar,1,2023-10-16_08h14.12.312,oct 9 class,2023.2.2,120.356919,2023-10-16 08h14.23.043823 +0530
50,c,random,0,0,0,0,4,3,19,2,,,,,33.36282338,,,,,,,33.35628354,0.604641042,34.67939092,c,1,0.712473625,None,,,,,,,,final_pushkar,1,2023-10-16_08h14.12.312,oct 9 class,2023.2.2,120.356919,2023-10-16 08h14.23.043823 +0530
50,c,random,0,0,0,0,5,0,20,2,,,,,34.68842296,,,,,,,34.6802945,0.601644792,36.04399208,c,1,0.756861667,None,,,,,,,,final_pushkar,1,2023-10-16_08h14.12.312,oct 9 class,2023.2.2,120.356919,2023-10-16 08h14.23.043823 +0530
150,v,random,0,0,0,0,5,1,21,3,,,,,36.05216421,,,,,,,36.04481412,0.603868167,37.16009692,v,1,0.50445775,None,,,,,,,,final_pushkar,1,2023-10-16_08h14.12.312,oct 9 class,2023.2.2,120.356919,2023-10-16 08h14.23.043823 +0530
50,c,random,0,0,0,0,5,2,22,2,,,,,37.16839817,,,,,,,37.16115671,0.599440917,38.63446333,c,1,0.870910792,None,,,,,,,,final_pushkar,1,2023-10-16_08h14.12.312,oct 9 class,2023.2.2,120.356919,2023-10-16 08h14.23.043823 +0530
-150,z,random,0,0,0,0,5,3,23,0,,,,,38.64286313,,,,,,,38.6352305,0.608848667,39.78697792,z,1,0.539141583,None,,,,,,,,final_pushkar,1,2023-10-16_08h14.12.312,oct 9 class,2023.2.2,120.356919,2023-10-16 08h14.23.043823 +0530
50,c,random,0,0,0,0,6,0,24,2,,,,,39.79677746,,,,,,,39.78800142,0.606470542,41.11026058,c,1,0.713409792,None,,,,,,,,final_pushkar,1,2023-10-16_08h14.12.312,oct 9 class,2023.2.2,120.356919,2023-10-16 08h14.23.043823 +0530
150,v,random,0,0,0,0,6,1,25,3,,,,,41.11818517,,,,,,,41.11111679,0.604226417,42.21996392,v,1,0.501846959,None,,,,,,,,final_pushkar,1,2023-10-16_08h14.12.312,oct 9 class,2023.2.2,120.356919,2023-10-16 08h14.23.043823 +0530
-150,z,random,0,0,0,0,6,2,26,0,,,,,42.24333025,,,,,,,42.22087333,0.601882167,43.19460404,z,1,0.369605,None,,,,,,,,final_pushkar,1,2023-10-16_08h14.12.312,oct 9 class,2023.2.2,120.356919,2023-10-16 08h14.23.043823 +0530
-50,x,random,0,0,0,0,6,3,27,1,,,,,43.20453183,,,,,,,43.19573396,0.615527917,44.42118779,x,1,0.603502667,None,,,,,,,,final_pushkar,1,2023-10-16_08h14.12.312,oct 9 class,2023.2.2,120.356919,2023-10-16 08h14.23.043823 +0530
50,c,random,0,0,0,0,7,0,28,2,,,,,44.43097258,,,,,,,44.42224896,0.605288834,45.71090083,c,1,0.682859917,None,,,,,,,,final_pushkar,1,2023-10-16_08h14.12.312,oct 9 class,2023.2.2,120.356919,2023-10-16 08h14.23.043823 +0530
50,c,random,0,0,0,0,7,1,29,2,,,,,45.72756829,,,,,,,45.71190542,0.602518417,47.08480908,c,1,0.763426333,None,,,,,,,,final_pushkar,1,2023-10-16_08h14.12.312,oct 9 class,2023.2.2,120.356919,2023-10-16 08h14.23.043823 +0530
50,c,random,0,0,0,0,7,2,30,2,,,,,47.09302946,,,,,,,47.08563146,0.607897125,48.19527471,c,1,0.494587042,None,,,,,,,,final_pushkar,1,2023-10-16_08h14.12.312,oct 9 class,2023.2.2,120.356919,2023-10-16 08h14.23.043823 +0530
-50,x,random,0,0,0,0,7,3,31,1,,,,,48.20422738,,,,,,,48.196184,0.615230542,49.35299642,x,1,0.534368583,None,,,,,,,,final_pushkar,1,2023-10-16_08h14.12.312,oct 9 class,2023.2.2,120.356919,2023-10-16 08h14.23.043823 +0530
-150,z,random,0,0,0,0,8,0,32,0,,,,,49.36252196,,,,,,,49.35389333,0.6069375,50.34583863,z,1,0.37765025,None,,,,,,,,final_pushkar,1,2023-10-16_08h14.12.312,oct 9 class,2023.2.2,120.356919,2023-10-16 08h14.23.043823 +0530
-150,z,random,0,0,0,0,8,1,33,0,,,,,50.35473667,,,,,,,50.34673462,0.614495166,51.35370375,z,1,0.384912541,None,,,,,,,,final_pushkar,1,2023-10-16_08h14.12.312,oct 9 class,2023.2.2,120.356919,2023-10-16 08h14.23.043823 +0530
150,v,random,0,0,0,0,8,2,34,3,,,,,51.36327204,,,,,,,51.3545985,0.606430916,52.59727358,v,1,0.628563583,None,,,,,,,,final_pushkar,1,2023-10-16_08h14.12.312,oct 9 class,2023.2.2,120.356919,2023-10-16 08h14.23.043823 +0530
50,c,random,0,0,0,0,8,3,35,2,,,,,52.61073763,,,,,,,52.59817433,0.599462166,53.66468617,c,1,0.464590625,None,,,,,,,,final_pushkar,1,2023-10-16_08h14.12.312,oct 9 class,2023.2.2,120.356919,2023-10-16 08h14.23.043823 +0530
-150,z,random,0,0,0,0,9,0,36,0,,,,,53.67743883,,,,,,,53.66560638,0.59945875,54.57011633,z,1,0.304493625,None,,,,,,,,final_pushkar,1,2023-10-16_08h14.12.312,oct 9 class,2023.2.2,120.356919,2023-10-16 08h14.23.043823 +0530
50,c,random,0,0,0,0,9,1,37,2,,,,,54.59410025,,,,,,,54.57104917,0.606812792,55.63813821,c,1,0.455811375,None,,,,,,,,final_pushkar,1,2023-10-16_08h14.12.312,oct 9 class,2023.2.2,120.356919,2023-10-16 08h14.23.043823 +0530
-50,x,random,0,0,0,0,9,2,38,1,,,,,55.64719683,,,,,,,55.63904654,0.601948417,56.78489546,x,1,0.543191792,None,,,,,,,,final_pushkar,1,2023-10-16_08h14.12.312,oct 9 class,2023.2.2,120.356919,2023-10-16 08h14.23.043823 +0530
-50,x,random,0,0,0,0,9,3,39,1,,,,,56.79329888,,,,,,,56.78571479,0.602395375,57.82849275,x,1,0.425279125,None,,,,,,,,final_pushkar,1,2023-10-16_08h14.12.312,oct 9 class,2023.2.2,120.356919,2023-10-16 08h14.23.043823 +0530
-50,x,random,0,0,0,0,10,0,40,1,,,,,57.83820942,,,,,,,57.82951613,0.603127542,58.7780005,x,1,0.331673417,None,,,,,,,,final_pushkar,1,2023-10-16_08h14.12.312,oct 9 class,2023.2.2,120.356919,2023-10-16 08h14.23.043823 +0530
150,v,random,0,0,0,0,10,1,41,3,,,,,58.78540225,,,,,,,58.77903333,0.603019875,59.94570358,v,1,0.559186792,None,,,,,,,,final_pushkar,1,2023-10-16_08h14.12.312,oct 9 class,2023.2.2,120.356919,2023-10-16 08h14.23.043823 +0530
-50,x,random,0,0,0,0,10,2,42,1,,,,,59.95464258,,,,,,,59.94663567,0.608092,61.22736079,x,1,0.664757167,None,,,,,,,,final_pushkar,1,2023-10-16_08h14.12.312,oct 9 class,2023.2.2,120.356919,2023-10-16 08h14.23.043823 +0530
150,v,random,0,0,0,0,10,3,43,3,,,,,61.23531763,,,,,,,61.22820117,0.604412459,62.40493454,v,1,0.56843125,None,,,,,,,,final_pushkar,1,2023-10-16_08h14.12.312,oct 9 class,2023.2.2,120.356919,2023-10-16 08h14.23.043823 +0530
50,c,random,0,0,0,0,11,0,44,2,,,,,62.41500913,,,,,,,62.40610892,0.605376083,63.61334821,c,1,0.595930834,None,,,,,,,,final_pushkar,1,2023-10-16_08h14.12.312,oct 9 class,2023.2.2,120.356919,2023-10-16 08h14.23.043823 +0530
-150,z,random,0,0,0,0,11,1,45,0,,,,,63.62275871,,,,,,,63.61436754,0.601887875,64.64522825,z,1,0.42577,None,,,,,,,,final_pushkar,1,2023-10-16_08h14.12.312,oct 9 class,2023.2.2,120.356919,2023-10-16 08h14.23.043823 +0530
-50,x,random,0,0,0,0,11,2,46,1,,,,,64.65409842,,,,,,,64.64612838,0.603226708,66.1160245,x,1,0.864341917,None,,,,,,,,final_pushkar,1,2023-10-16_08h14.12.312,oct 9 class,2023.2.2,120.356919,2023-10-16 08h14.23.043823 +0530
-150,z,random,0,0,0,0,11,3,47,0,,,,,66.12701362,,,,,,,66.11703929,0.611107125,67.17960521,z,1,0.443703,None,,,,,,,,final_pushkar,1,2023-10-16_08h14.12.312,oct 9 class,2023.2.2,120.356919,2023-10-16 08h14.23.043823 +0530
150,v,random,0,0,0,0,12,0,48,3,,,,,67.18855146,,,,,,,67.18050146,0.599296833,68.2515695,v,1,0.465242792,None,,,,,,,,final_pushkar,1,2023-10-16_08h14.12.312,oct 9 class,2023.2.2,120.356919,2023-10-16 08h14.23.043823 +0530
-150,z,random,0,0,0,0,12,1,49,0,,,,,68.26025058,,,,,,,68.25233067,0.602813458,69.34490488,z,1,0.468531167,None,,,,,,,,final_pushkar,1,2023-10-16_08h14.12.312,oct 9 class,2023.2.2,120.356919,2023-10-16 08h14.23.043823 +0530
50,c,random,0,0,0,0,12,2,50,2,,,,,69.36142463,,,,,,,69.34605979,0.603377958,70.79422908,c,1,0.842798292,None,,,,,,,,final_pushkar,1,2023-10-16_08h14.12.312,oct 9 class,2023.2.2,120.356919,2023-10-16 08h14.23.043823 +0530
150,v,random,0,0,0,0,12,3,51,3,,,,,70.80052646,,,,,,,70.79505704,0.604593584,71.868853,v,1,0.467016916,None,,,,,,,,final_pushkar,1,2023-10-16_08h14.12.312,oct 9 class,2023.2.2,120.356919,2023-10-16 08h14.23.043823 +0530
-50,x,random,0,0,0,0,13,0,52,1,,,,,71.87696129,,,,,,,71.86968525,0.602286792,73.13695788,x,1,0.663496,None,,,,,,,,final_pushkar,1,2023-10-16_08h14.12.312,oct 9 class,2023.2.2,120.356919,2023-10-16 08h14.23.043823 +0530
-150,z,random,0,0,0,0,13,1,53,0,,,,,73.14645021,,,,,,,73.13786496,0.607280334,74.22876138,z,1,0.473424083,None,,,,,,,,final_pushkar,1,2023-10-16_08h14.12.312,oct 9 class,2023.2.2,120.356919,2023-10-16 08h14.23.043823 +0530
50,c,random,0,0,0,0,13,2,54,2,,,,,74.23895929,,,,,,,74.22990517,0.602955666,75.47811308,c,1,0.633556875,None,,,,,,,,final_pushkar,1,2023-10-16_08h14.12.312,oct 9 class,2023.2.2,120.356919,2023-10-16 08h14.23.043823 +0530
-50,x,random,0,0,0,0,13,3,55,1,,,,,75.49521679,,,,,,,75.4791315,0.603761708,76.9872735,x,1,0.899511416,None,,,,,,,,final_pushkar,1,2023-10-16_08h14.12.312,oct 9 class,2023.2.2,120.356919,2023-10-16 08h14.23.043823 +0530
50,c,random,0,0,0,0,14,0,56,2,,,,,76.99765533,,,,,,,76.98833367,0.601925458,78.09556729,c,1,0.4934355,None,,,,,,,,final_pushkar,1,2023-10-16_08h14.12.312,oct 9 class,2023.2.2,120.356919,2023-10-16 08h14.23.043823 +0530
150,v,random,0,0,0,0,14,1,57,3,,,,,78.10458975,,,,,,,78.09653258,0.603136875,79.17898838,v,1,0.472655333,None,,,,,,,,final_pushkar,1,2023-10-16_08h14.12.312,oct 9 class,2023.2.2,120.356919,2023-10-16 08h14.23.043823 +0530
150,v,random,0,0,0,0,14,2,58,3,,,,,79.18910754,,,,,,,79.18013608,0.602958833,80.18748958,v,1,0.400631709,None,,,,,,,,final_pushkar,1,2023-10-16_08h14.12.312,oct 9 class,2023.2.2,120.356919,2023-10-16 08h14.23.043823 +0530
-150,z,random,0,0,0,0,14,3,59,0,,,,,80.21121971,,,,,,,80.18839438,0.606795625,81.16208454,z,1,0.356829458,None,,,,,,,,final_pushkar,1,2023-10-16_08h14.12.312,oct 9 class,2023.2.2,120.356919,2023-10-16 08h14.23.043823 +0530
50,c,random,0,0,0,0,15,0,60,2,,,,,81.1714145,,,,,,,81.16310621,0.603309458,82.39867354,c,1,0.623356584,None,,,,,,,,final_pushkar,1,2023-10-16_08h14.12.312,oct 9 class,2023.2.2,120.356919,2023-10-16 08h14.23.043823 +0530
150,v,random,0,0,0,0,15,1,61,3,,,,,82.411414,,,,,,,82.39982763,0.599209791,83.45433013,v,1,0.451645291,None,,,,,,,,final_pushkar,1,2023-10-16_08h14.12.312,oct 9 class,2023.2.2,120.356919,2023-10-16 08h14.23.043823 +0530
50,c,random,0,0,0,0,15,2,62,2,,,,,83.47757567,,,,,,,83.45523913,0.599197542,84.596964,c,1,0.53810275,None,,,,,,,,final_pushkar,1,2023-10-16_08h14.12.312,oct 9 class,2023.2.2,120.356919,2023-10-16 08h14.23.043823 +0530
-150,z,random,0,0,0,0,15,3,63,0,,,,,84.60588479,,,,,,,84.59786338,0.607840125,85.60771533,z,1,0.391142083,None,,,,,,,,final_pushkar,1,2023-10-16_08h14.12.312,oct 9 class,2023.2.2,120.356919,2023-10-16 08h14.23.043823 +0530
-150,z,random,0,0,0,0,16,0,64,0,,,,,85.61572388,,,,,,,85.60886025,0.603024,86.65798013,z,1,0.433947125,None,,,,,,,,final_pushkar,1,2023-10-16_08h14.12.312,oct 9 class,2023.2.2,120.356919,2023-10-16 08h14.23.043823 +0530
150,v,random,0,0,0,0,16,1,65,3,,,,,86.66584442,,,,,,,86.65918363,0.603113375,87.75667083,v,1,0.48437575,None,,,,,,,,final_pushkar,1,2023-10-16_08h14.12.312,oct 9 class,2023.2.2,120.356919,2023-10-16 08h14.23.043823 +0530
150,v,random,0,0,0,0,16,2,66,3,,,,,87.76417542,,,,,,,87.75759283,0.604558625,88.74617646,v,1,0.383375583,None,,,,,,,,final_pushkar,1,2023-10-16_08h14.12.312,oct 9 class,2023.2.2,120.356919,2023-10-16 08h14.23.043823 +0530
-150,z,random,0,0,0,0,16,3,67,0,,,,,88.75599146,,,,,,,88.74731292,0.602981375,89.72147917,z,1,0.366064125,None,,,,,,,,final_pushkar,1,2023-10-16_08h14.12.312,oct 9 class,2023.2.2,120.356919,2023-10-16 08h14.23.043823 +0530
-50,x,random,0,0,0,0,17,0,68,1,,,,,89.73147467,,,,,,,89.72238583,0.606141708,91.1853705,x,1,0.850719375,None,,,,,,,,final_pushkar,1,2023-10-16_08h14.12.312,oct 9 class,2023.2.2,120.356919,2023-10-16 08h14.23.043823 +0530
150,v,random,0,0,0,0,17,1,69,3,,,,,91.19471,,,,,,,91.18620183,0.609435833,92.28999879,v,1,0.491002292,None,,,,,,,,final_pushkar,1,2023-10-16_08h14.12.312,oct 9 class,2023.2.2,120.356919,2023-10-16 08h14.23.043823 +0530
150,v,random,0,0,0,0,17,2,70,3,,,,,92.300166,,,,,,,92.29122042,0.604601916,93.35549496,v,1,0.458046542,None,,,,,,,,final_pushkar,1,2023-10-16_08h14.12.312,oct 9 class,2023.2.2,120.356919,2023-10-16 08h14.23.043823 +0530
-150,z,random,0,0,0,0,17,3,71,0,,,,,93.3648615,,,,,,,93.35641488,0.605765375,94.34605838,z,1,0.373651083,None,,,,,,,,final_pushkar,1,2023-10-16_08h14.12.312,oct 9 class,2023.2.2,120.356919,2023-10-16 08h14.23.043823 +0530
-50,x,random,0,0,0,0,18,0,72,1,,,,,94.35559133,,,,,,,94.34709529,0.608636291,95.46213775,x,1,0.504590791,None,,,,,,,,final_pushkar,1,2023-10-16_08h14.12.312,oct 9 class,2023.2.2,120.356919,2023-10-16 08h14.23.043823 +0530
50,c,random,0,0,0,0,18,1,73,2,,,,,95.4780755,,,,,,,95.46315667,0.602847292,96.43336388,c,1,0.363231791,None,,,,,,,,final_pushkar,1,2023-10-16_08h14.12.312,oct 9 class,2023.2.2,120.356919,2023-10-16 08h14.23.043823 +0530
-150,z,random,0,0,0,0,18,2,74,0,,,,,96.44446275,,,,,,,96.43436863,0.605319958,97.44591638,z,1,0.400727375,None,,,,,,,,final_pushkar,1,2023-10-16_08h14.12.312,oct 9 class,2023.2.2,120.356919,2023-10-16 08h14.23.043823 +0530
150,v,random,0,0,0,0,18,3,75,3,,,,,97.46166533,,,,,,,97.4472265,0.61553175,98.49736983,v,1,0.4341515,None,,,,,,,,final_pushkar,1,2023-10-16_08h14.12.312,oct 9 class,2023.2.2,120.356919,2023-10-16 08h14.23.043823 +0530
-150,z,random,0,0,0,0,19,0,76,0,,,,,98.50652767,,,,,,,98.49837308,0.6018095,99.4718985,z,1,0.370776917,None,,,,,,,,final_pushkar,1,2023-10-16_08h14.12.312,oct 9 class,2023.2.2,120.356919,2023-10-16 08h14.23.043823 +0530
-50,x,random,0,0,0,0,19,1,77,1,,,,,99.48154129,,,,,,,99.47290283,0.608810667,100.5489219,x,1,0.458621583,None,,,,,,,,final_pushkar,1,2023-10-16_08h14.12.312,oct 9 class,2023.2.2,120.356919,2023-10-16 08h14.23.043823 +0530
-50,x,random,0,0,0,0,19,2,78,1,,,,,100.5619412,,,,,,,100.5499249,0.6127895,101.5790237,x,1,0.409234083,None,,,,,,,,final_pushkar,1,2023-10-16_08h14.12.312,oct 9 class,2023.2.2,120.356919,2023-10-16 08h14.23.043823 +0530
150,v,random,0,0,0,0,19,3,79,3,,,,,101.595488,,,,,,,101.5799233,0.60363125,102.5565156,c,0,0.362388375,None,,,,,,,,final_pushkar,1,2023-10-16_08h14.12.312,oct 9 class,2023.2.2,120.356919,2023-10-16 08h14.23.043823 +0530
50,c,random,0,0,0,0,20,0,80,2,,,,,102.5786384,,,,,,,102.5573551,0.604659875,103.7400977,c,1,0.57623575,None,,,,,,,,final_pushkar,1,2023-10-16_08h14.12.312,oct 9 class,2023.2.2,120.356919,2023-10-16 08h14.23.043823 +0530
-50,x,random,0,0,0,0,20,1,81,1,,,,,103.749587,,,,,,,103.7411284,0.605067709,104.982492,x,1,0.633586917,None,,,,,,,,final_pushkar,1,2023-10-16_08h14.12.312,oct 9 class,2023.2.2,120.356919,2023-10-16 08h14.23.043823 +0530
50,c,random,0,0,0,0,20,2,82,2,,,,,104.9954495,,,,,,,104.9834051,0.599183625,106.0990372,c,1,0.513529292,None,,,,,,,,final_pushkar,1,2023-10-16_08h14.12.312,oct 9 class,2023.2.2,120.356919,2023-10-16 08h14.23.043823 +0530
-50,x,random,0,0,0,0,20,3,83,1,,,,,106.1121126,,,,,,,106.0999442,0.612812041,107.3185328,x,1,0.601282791,None,,,,,,,,final_pushkar,1,2023-10-16_08h14.12.312,oct 9 class,2023.2.2,120.356919,2023-10-16 08h14.23.043823 +0530
-150,z,random,0,0,0,0,21,0,84,0,,,,,107.3278671,,,,,,,107.3193587,0.600795875,108.3059155,z,1,0.38183125,None,,,,,,,,final_pushkar,1,2023-10-16_08h14.12.312,oct 9 class,2023.2.2,120.356919,2023-10-16 08h14.23.043823 +0530
50,c,random,0,0,0,0,21,1,85,2,,,,,108.3152623,,,,,,,108.3068566,0.605824875,109.2810795,c,1,0.362975291,None,,,,,,,,final_pushkar,1,2023-10-16_08h14.12.312,oct 9 class,2023.2.2,120.356919,2023-10-16 08h14.23.043823 +0530
150,v,random,0,0,0,0,21,2,86,3,,,,,109.290018,,,,,,,109.2819807,0.607528041,110.3127892,v,1,0.416629125,None,,,,,,,,final_pushkar,1,2023-10-16_08h14.12.312,oct 9 class,2023.2.2,120.356919,2023-10-16 08h14.23.043823 +0530
150,v,random,0,0,0,0,21,3,87,3,,,,,110.3209612,,,,,,,110.3136089,0.615807667,111.429418,v,1,0.484095208,None,,,,,,,,final_pushkar,1,2023-10-16_08h14.12.312,oct 9 class,2023.2.2,120.356919,2023-10-16 08h14.23.043823 +0530
50,c,random,0,0,0,0,22,0,88,2,,,,,111.4460485,,,,,,,111.4304448,0.603554,112.4970111,c,1,0.458140416,None,,,,,,,,final_pushkar,1,2023-10-16_08h14.12.312,oct 9 class,2023.2.2,120.356919,2023-10-16 08h14.23.043823 +0530
-150,z,random,0,0,0,0,22,1,89,0,,,,,112.5059005,,,,,,,112.497909,0.602138791,113.446311,z,1,0.3380045,None,,,,,,,,final_pushkar,1,2023-10-16_08h14.12.312,oct 9 class,2023.2.2,120.356919,2023-10-16 08h14.23.043823 +0530
150,v,random,0,0,0,0,22,2,90,3,,,,,113.4563152,,,,,,,113.4474473,0.603423375,114.5534633,v,1,0.497041708,None,,,,,,,,final_pushkar,1,2023-10-16_08h14.12.312,oct 9 class,2023.2.2,120.356919,2023-10-16 08h14.23.043823 +0530
50,c,random,0,0,0,0,22,3,91,2,,,,,114.5617566,,,,,,,114.5541198,0.608491584,115.5822947,c,1,0.413259875,None,,,,,,,,final_pushkar,1,2023-10-16_08h14.12.312,oct 9 class,2023.2.2,120.356919,2023-10-16 08h14.23.043823 +0530
150,v,random,0,0,0,0,23,0,92,3,,,,,115.5956882,,,,,,,115.5834273,0.599152375,116.639938,v,1,0.453414167,None,,,,,,,,final_pushkar,1,2023-10-16_08h14.12.312,oct 9 class,2023.2.2,120.356919,2023-10-16 08h14.23.043823 +0530
50,c,random,0,0,0,0,23,1,93,2,,,,,116.6494361,,,,,,,116.6408427,0.605315625,117.7386489,c,1,0.486130959,None,,,,,,,,final_pushkar,1,2023-10-16_08h14.12.312,oct 9 class,2023.2.2,120.356919,2023-10-16 08h14.23.043823 +0530
150,v,random,0,0,0,0,23,2,94,3,,,,,117.7622526,,,,,,,117.7395516,0.606584167,118.7633894,v,1,0.412373292,None,,,,,,,,final_pushkar,1,2023-10-16_08h14.12.312,oct 9 class,2023.2.2,120.356919,2023-10-16 08h14.23.043823 +0530
-150,z,random,0,0,0,0,23,3,95,0,,,,,118.7728801,,,,,,,118.7643963,0.615323875,119.6969288,z,1,0.3114395,None,,,,,,,,final_pushkar,1,2023-10-16_08h14.12.312,oct 9 class,2023.2.2,120.356919,2023-10-16 08h14.23.043823 +0530
-150,z,random,0,0,0,0,24,0,96,0,,,,,119.7056793,,,,,,,119.6978225,0.615387375,120.6789706,z,1,0.363376667,None,,,,,,,,final_pushkar,1,2023-10-16_08h14.12.312,oct 9 class,2023.2.2,120.356919,2023-10-16 08h14.23.043823 +0530
50,c,random,0,0,0,0,24,1,97,2,,,,,120.6874678,,,,,,,120.6797905,0.599683917,121.8639695,c,1,0.583496625,None,,,,,,,,final_pushkar,1,2023-10-16_08h14.12.312,oct 9 class,2023.2.2,120.356919,2023-10-16 08h14.23.043823 +0530
-50,x,random,0,0,0,0,24,2,98,1,,,,,121.8728966,,,,,,,121.864863,0.608377834,123.0059112,x,1,0.532138625,None,,,,,,,,final_pushkar,1,2023-10-16_08h14.12.312,oct 9 class,2023.2.2,120.356919,2023-10-16 08h14.23.043823 +0530
50,c,random,0,0,0,0,24,3,99,2,,,,,123.0162761,,,,,,,123.0069121,0.6060305,124.088712,c,1,0.471503667,None,,,,,,,,final_pushkar,1,2023-10-16_08h14.12.312,oct 9 class,2023.2.2,120.356919,2023-10-16 08h14.23.043823 +0530
-50,x,random,0,0,0,0,25,0,100,1,,,,,124.1124295,,,,,,,124.0895363,0.606577125,125.2968268,x,1,0.584850375,None,,,,,,,,final_pushkar,1,2023-10-16_08h14.12.312,oct 9 class,2023.2.2,120.356919,2023-10-16 08h14.23.043823 +0530
50,c,random,0,0,0,0,25,1,101,2,,,,,125.3062436,,,,,,,125.2978613,0.602710917,126.2512338,c,1,0.339991542,None,,,,,,,,final_pushkar,1,2023-10-16_08h14.12.312,oct 9 class,2023.2.2,120.356919,2023-10-16 08h14.23.043823 +0530
-50,x,random,0,0,0,0,25,2,102,1,,,,,126.262647,,,,,,,126.252424,0.611106583,127.1469535,x,1,0.267544667,None,,,,,,,,final_pushkar,1,2023-10-16_08h14.12.312,oct 9 class,2023.2.2,120.356919,2023-10-16 08h14.23.043823 +0530
50,c,random,0,0,0,0,25,3,103,2,,,,,127.1565237,,,,,,,127.1479673,0.608838958,128.0631879,c,1,0.287091667,None,,,,,,,,final_pushkar,1,2023-10-16_08h14.12.312,oct 9 class,2023.2.2,120.356919,2023-10-16 08h14.23.043823 +0530
150,v,random,0,0,0,0,26,0,104,3,,,,,128.0796219,,,,,,,128.0642203,0.599023584,129.1051581,v,1,0.436475583,None,,,,,,,,final_pushkar,1,2023-10-16_08h14.12.312,oct 9 class,2023.2.2,120.356919,2023-10-16 08h14.23.043823 +0530
-150,z,random,0,0,0,0,26,1,105,0,,,,,129.1292178,,,,,,,129.1060615,0.606917875,130.1318745,z,1,0.417052084,None,,,,,,,,final_pushkar,1,2023-10-16_08h14.12.312,oct 9 class,2023.2.2,120.356919,2023-10-16 08h14.23.043823 +0530
-50,x,random,0,0,0,0,26,2,106,1,,,,,130.1408324,,,,,,,130.1327705,0.607199,131.2957325,x,1,0.551189208,None,,,,,,,,final_pushkar,1,2023-10-16_08h14.12.312,oct 9 class,2023.2.2,120.356919,2023-10-16 08h14.23.043823 +0530
-150,z,random,0,0,0,0,26,3,107,0,,,,,131.3035725,,,,,,,131.2965827,0.600081208,132.3719619,z,1,0.467608167,None,,,,,,,,final_pushkar,1,2023-10-16_08h14.12.312,oct 9 class,2023.2.2,120.356919,2023-10-16 08h14.23.043823 +0530
-50,x,random,0,0,0,0,27,0,108,1,,,,,132.3819928,,,,,,,132.3729731,0.607213,133.4326765,x,1,0.446943583,None,,,,,,,,final_pushkar,1,2023-10-16_08h14.12.312,oct 9 class,2023.2.2,120.356919,2023-10-16 08h14.23.043823 +0530
150,v,random,0,0,0,0,27,1,109,3,,,,,133.44639,,,,,,,133.4335755,0.599970291,134.4235002,c,0,0.383084834,None,,,,,,,,final_pushkar,1,2023-10-16_08h14.12.312,oct 9 class,2023.2.2,120.356919,2023-10-16 08h14.23.043823 +0530
150,v,random,0,0,0,0,27,2,110,3,,,,,134.4324551,,,,,,,134.4244003,0.605490666,135.4729349,v,1,0.441316459,None,,,,,,,,final_pushkar,1,2023-10-16_08h14.12.312,oct 9 class,2023.2.2,120.356919,2023-10-16 08h14.23.043823 +0530
50,c,random,0,0,0,0,27,3,111,2,,,,,135.4822385,,,,,,,135.4738413,0.605869333,136.5798365,c,1,0.479683834,None,,,,,,,,final_pushkar,1,2023-10-16_08h14.12.312,oct 9 class,2023.2.2,120.356919,2023-10-16 08h14.23.043823 +0530
-150,z,random,0,0,0,0,28,0,112,0,,,,,136.5965433,,,,,,,136.5808521,0.602969,137.5809933,z,1,0.391835041,None,,,,,,,,final_pushkar,1,2023-10-16_08h14.12.312,oct 9 class,2023.2.2,120.356919,2023-10-16 08h14.23.043823 +0530
-50,x,random,0,0,0,0,28,1,113,1,,,,,137.5899387,,,,,,,137.5818935,0.608248666,138.7303065,x,1,0.533415792,None,,,,,,,,final_pushkar,1,2023-10-16_08h14.12.312,oct 9 class,2023.2.2,120.356919,2023-10-16 08h14.23.043823 +0530
50,c,random,0,0,0,0,28,2,114,2,,,,,138.7393266,,,,,,,138.7312078,0.603241333,139.7293323,c,1,0.386660417,None,,,,,,,,final_pushkar,1,2023-10-16_08h14.12.312,oct 9 class,2023.2.2,120.356919,2023-10-16 08h14.23.043823 +0530
-50,x,random,0,0,0,0,28,3,115,1,,,,,139.7380861,,,,,,,139.730267,0.599542083,140.8532913,x,1,0.519554333,None,,,,,,,,final_pushkar,1,2023-10-16_08h14.12.312,oct 9 class,2023.2.2,120.356919,2023-10-16 08h14.23.043823 +0530
-150,z,random,0,0,0,0,29,0,116,0,,,,,140.8620896,,,,,,,140.8541475,0.609244709,141.9801702,z,1,0.494562334,None,,,,,,,,final_pushkar,1,2023-10-16_08h14.12.312,oct 9 class,2023.2.2,120.356919,2023-10-16 08h14.23.043823 +0530
150,v,random,0,0,0,0,29,1,117,3,,,,,141.9968042,,,,,,,141.9811764,0.615901208,142.9746391,v,1,0.374557042,None,,,,,,,,final_pushkar,1,2023-10-16_08h14.12.312,oct 9 class,2023.2.2,120.356919,2023-10-16 08h14.23.043823 +0530
150,v,random,0,0,0,0,29,2,118,3,,,,,142.9839734,,,,,,,142.9756534,0.60416575,144.0031638,v,1,0.418968458,None,,,,,,,,final_pushkar,1,2023-10-16_08h14.12.312,oct 9 class,2023.2.2,120.356919,2023-10-16 08h14.23.043823 +0530
-150,z,random,0,0,0,0,29,3,119,0,,,,,144.0123161,,,,,,,144.0040004,0.609797708,145.055966,z,1,0.4401485,None,,,,,,,,final_pushkar,1,2023-10-16_08h14.12.312,oct 9 class,2023.2.2,120.356919,2023-10-16 08h14.23.043823 +0530
-150,z,random,0,0,0,0,30,0,120,0,,,,,145.0792424,,,,,,,145.056802,0.606936584,146.0969549,z,1,0.431431417,None,,,,,,,,final_pushkar,1,2023-10-16_08h14.12.312,oct 9 class,2023.2.2,120.356919,2023-10-16 08h14.23.043823 +0530
-50,x,random,0,0,0,0,30,1,121,1,,,,,146.1135838,,,,,,,146.0978592,0.615531166,147.3506767,x,1,0.626356333,None,,,,,,,,final_pushkar,1,2023-10-16_08h14.12.312,oct 9 class,2023.2.2,120.356919,2023-10-16 08h14.23.043823 +0530
-50,x,random,0,0,0,0,30,2,122,1,,,,,147.3633912,,,,,,,147.351593,0.61211525,148.3492046,x,1,0.384088542,None,,,,,,,,final_pushkar,1,2023-10-16_08h14.12.312,oct 9 class,2023.2.2,120.356919,2023-10-16 08h14.23.043823 +0530
150,v,random,0,0,0,0,30,3,123,3,,,,,148.358509,,,,,,,148.3501993,0.600812042,149.416395,v,1,0.459902209,None,,,,,,,,final_pushkar,1,2023-10-16_08h14.12.312,oct 9 class,2023.2.2,120.356919,2023-10-16 08h14.23.043823 +0530
-150,z,random,0,0,0,0,31,0,124,0,,,,,149.4298946,,,,,,,149.4174418,0.606570666,150.5920088,z,1,0.557743375,None,,,,,,,,final_pushkar,1,2023-10-16_08h14.12.312,oct 9 class,2023.2.2,120.356919,2023-10-16 08h14.23.043823 +0530
50,c,random,0,0,0,0,31,1,125,2,,,,,150.5995648,,,,,,,150.5930413,0.60373675,151.8076431,c,1,0.608234875,None,,,,,,,,final_pushkar,1,2023-10-16_08h14.12.312,oct 9 class,2023.2.2,120.356919,2023-10-16 08h14.23.043823 +0530
-50,x,random,0,0,0,0,31,2,126,1,,,,,151.8172407,,,,,,,151.8085483,0.607911542,152.9824499,x,1,0.564739792,None,,,,,,,,final_pushkar,1,2023-10-16_08h14.12.312,oct 9 class,2023.2.2,120.356919,2023-10-16 08h14.23.043823 +0530
-150,z,random,0,0,0,0,31,3,127,0,,,,,152.9920162,,,,,,,152.9834865,0.607543542,154.0833837,z,1,0.482076417,None,,,,,,,,final_pushkar,1,2023-10-16_08h14.12.312,oct 9 class,2023.2.2,120.356919,2023-10-16 08h14.23.043823 +0530
-50,x,random,0,0,0,0,32,0,128,1,,,,,154.0969153,,,,,,,154.0843129,0.5998125,155.2142388,x,1,0.524457458,None,,,,,,,,final_pushkar,1,2023-10-16_08h14.12.312,oct 9 class,2023.2.2,120.356919,2023-10-16 08h14.23.043823 +0530
50,c,random,0,0,0,0,32,1,129,2,,,,,155.2230004,,,,,,,155.215132,0.61552625,156.2326913,c,1,0.396625958,None,,,,,,,,final_pushkar,1,2023-10-16_08h14.12.312,oct 9 class,2023.2.2,120.356919,2023-10-16 08h14.23.043823 +0530
50,c,random,0,0,0,0,32,2,130,2,,,,,156.2416282,,,,,,,156.2335879,0.600714792,157.2225399,c,1,0.387460333,None,,,,,,,,final_pushkar,1,2023-10-16_08h14.12.312,oct 9 class,2023.2.2,120.356919,2023-10-16 08h14.23.043823 +0530
150,v,random,0,0,0,0,32,3,131,3,,,,,157.2319585,,,,,,,157.2234304,0.607326167,158.3058717,v,1,0.469143667,None,,,,,,,,final_pushkar,1,2023-10-16_08h14.12.312,oct 9 class,2023.2.2,120.356919,2023-10-16 08h14.23.043823 +0530
-150,z,random,0,0,0,0,33,0,132,0,,,,,158.3299753,,,,,,,158.3067689,0.60721775,159.3172976,z,1,0.402236542,None,,,,,,,,final_pushkar,1,2023-10-16_08h14.12.312,oct 9 class,2023.2.2,120.356919,2023-10-16 08h14.23.043823 +0530
-150,z,random,0,0,0,0,33,1,133,0,,,,,159.3301729,,,,,,,159.3184318,0.6058455,160.3061138,z,1,0.375124625,None,,,,,,,,final_pushkar,1,2023-10-16_08h14.12.312,oct 9 class,2023.2.2,120.356919,2023-10-16 08h14.23.043823 +0530
-50,x,random,0,0,0,0,33,2,134,1,,,,,160.3299764,,,,,,,160.3071201,0.606824708,161.4708633,x,1,0.556015917,None,,,,,,,,final_pushkar,1,2023-10-16_08h14.12.312,oct 9 class,2023.2.2,120.356919,2023-10-16 08h14.23.043823 +0530
-150,z,random,0,0,0,0,33,3,135,0,,,,,161.4793687,,,,,,,161.471691,0.608919875,162.5185474,z,1,0.427595166,None,,,,,,,,final_pushkar,1,2023-10-16_08h14.12.312,oct 9 class,2023.2.2,120.356919,2023-10-16 08h14.23.043823 +0530
50,c,random,0,0,0,0,34,0,136,2,,,,,162.5304798,,,,,,,162.5193881,0.610952416,163.5652708,c,1,0.426956042,None,,,,,,,,final_pushkar,1,2023-10-16_08h14.12.312,oct 9 class,2023.2.2,120.356919,2023-10-16 08h14.23.043823 +0530
150,v,random,0,0,0,0,34,1,137,3,,,,,163.5745677,,,,,,,163.5661774,0.607907292,164.6071513,v,1,0.429159208,None,,,,,,,,final_pushkar,1,2023-10-16_08h14.12.312,oct 9 class,2023.2.2,120.356919,2023-10-16 08h14.23.043823 +0530
50,c,random,0,0,0,0,34,2,138,2,,,,,164.6167146,,,,,,,164.6081186,0.605877333,165.7317383,c,1,0.517165333,None,,,,,,,,final_pushkar,1,2023-10-16_08h14.12.312,oct 9 class,2023.2.2,120.356919,2023-10-16 08h14.23.043823 +0530
50,c,random,0,0,0,0,34,3,139,2,,,,,165.7414608,,,,,,,165.7328607,0.614885708,166.7466781,c,1,0.392923709,None,,,,,,,,final_pushkar,1,2023-10-16_08h14.12.312,oct 9 class,2023.2.2,120.356919,2023-10-16 08h14.23.043823 +0530
150,v,random,0,0,0,0,35,0,140,3,,,,,166.7548824,,,,,,,166.747523,0.599517834,167.8969359,v,1,0.5464325,None,,,,,,,,final_pushkar,1,2023-10-16_08h14.12.312,oct 9 class,2023.2.2,120.356919,2023-10-16 08h14.23.043823 +0530
50,c,random,0,0,0,0,35,1,141,2,,,,,167.9045858,,,,,,,167.8976693,0.599116709,169.0643676,c,1,0.56321775,None,,,,,,,,final_pushkar,1,2023-10-16_08h14.12.312,oct 9 class,2023.2.2,120.356919,2023-10-16 08h14.23.043823 +0530
50,c,random,0,0,0,0,35,2,142,2,,,,,169.0744472,,,,,,,169.0654953,0.603070959,170.3354623,c,1,0.656371459,None,,,,,,,,final_pushkar,1,2023-10-16_08h14.12.312,oct 9 class,2023.2.2,120.356919,2023-10-16 08h14.23.043823 +0530
-150,z,random,0,0,0,0,35,3,143,0,,,,,170.3473293,,,,,,,170.3363718,0.611087333,171.3760185,z,1,0.417650458,None,,,,,,,,final_pushkar,1,2023-10-16_08h14.12.312,oct 9 class,2023.2.2,120.356919,2023-10-16 08h14.23.043823 +0530
-50,x,random,0,0,0,0,36,0,144,1,,,,,171.3840002,,,,,,,171.3770448,0.604153166,172.6315823,x,1,0.641713458,None,,,,,,,,final_pushkar,1,2023-10-16_08h14.12.312,oct 9 class,2023.2.2,120.356919,2023-10-16 08h14.23.043823 +0530
-150,z,random,0,0,0,0,36,1,145,0,,,,,172.6412969,,,,,,,172.6326018,0.615362875,173.6875409,z,1,0.439234709,None,,,,,,,,final_pushkar,1,2023-10-16_08h14.12.312,oct 9 class,2023.2.2,120.356919,2023-10-16 08h14.23.043823 +0530
-150,z,random,0,0,0,0,36,2,146,0,,,,,173.6961795,,,,,,,173.6883713,0.609529208,174.6408543,z,1,0.338135042,None,,,,,,,,final_pushkar,1,2023-10-16_08h14.12.312,oct 9 class,2023.2.2,120.356919,2023-10-16 08h14.23.043823 +0530
-50,x,random,0,0,0,0,36,3,147,1,,,,,174.651605,,,,,,,174.6420974,0.605586708,175.7144168,x,1,0.458867959,None,,,,,,,,final_pushkar,1,2023-10-16_08h14.12.312,oct 9 class,2023.2.2,120.356919,2023-10-16 08h14.23.043823 +0530
-50,x,random,0,0,0,0,37,0,148,1,,,,,175.7308703,,,,,,,175.7154437,0.602631042,176.6811301,x,1,0.35273225,None,,,,,,,,final_pushkar,1,2023-10-16_08h14.12.312,oct 9 class,2023.2.2,120.356919,2023-10-16 08h14.23.043823 +0530
-150,z,random,0,0,0,0,37,1,149,0,,,,,176.6975763,,,,,,,176.6821628,0.599265167,177.6331564,z,1,0.350620333,None,,,,,,,,final_pushkar,1,2023-10-16_08h14.12.312,oct 9 class,2023.2.2,120.356919,2023-10-16 08h14.23.043823 +0530
50,c,random,0,0,0,0,37,2,150,2,,,,,177.6424466,,,,,,,177.6341657,0.60002275,178.6978061,c,1,0.447964459,None,,,,,,,,final_pushkar,1,2023-10-16_08h14.12.312,oct 9 class,2023.2.2,120.356919,2023-10-16 08h14.23.043823 +0530
-50,x,random,0,0,0,0,37,3,151,1,,,,,178.7143164,,,,,,,178.6989529,0.599012833,179.856829,x,1,0.552392625,None,,,,,,,,final_pushkar,1,2023-10-16_08h14.12.312,oct 9 class,2023.2.2,120.356919,2023-10-16 08h14.23.043823 +0530
150,v,random,0,0,0,0,38,0,152,3,,,,,179.8804104,,,,,,,179.8577242,0.606337334,181.004749,v,1,0.536028792,None,,,,,,,,final_pushkar,1,2023-10-16_08h14.12.312,oct 9 class,2023.2.2,120.356919,2023-10-16 08h14.23.043823 +0530
-150,z,random,0,0,0,0,38,1,153,0,,,,,181.0137096,,,,,,,181.0055686,0.602689208,182.11479,z,1,0.501731125,None,,,,,,,,final_pushkar,1,2023-10-16_08h14.12.312,oct 9 class,2023.2.2,120.356919,2023-10-16 08h14.23.043823 +0530
50,c,random,0,0,0,0,38,2,154,2,,,,,182.124571,,,,,,,182.1159363,0.615572375,183.2081955,c,1,0.473914917,None,,,,,,,,final_pushkar,1,2023-10-16_08h14.12.312,oct 9 class,2023.2.2,120.356919,2023-10-16 08h14.23.043823 +0530
150,v,random,0,0,0,0,38,3,155,3,,,,,183.2182901,,,,,,,183.2093582,0.605397958,184.2819857,v,1,0.45729475,None,,,,,,,,final_pushkar,1,2023-10-16_08h14.12.312,oct 9 class,2023.2.2,120.356919,2023-10-16 08h14.23.043823 +0530
50,c,random,0,0,0,0,39,0,156,2,,,,,184.2924617,,,,,,,184.2832859,0.61509175,185.4384579,c,1,0.536959708,None,,,,,,,,final_pushkar,1,2023-10-16_08h14.12.312,oct 9 class,2023.2.2,120.356919,2023-10-16 08h14.23.043823 +0530
150,v,random,0,0,0,0,39,1,157,3,,,,,185.4466828,,,,,,,185.4392787,0.608936333,186.5499378,v,1,0.495509583,None,,,,,,,,final_pushkar,1,2023-10-16_08h14.12.312,oct 9 class,2023.2.2,120.356919,2023-10-16 08h14.23.043823 +0530
150,v,random,0,0,0,0,39,2,158,3,,,,,186.5592065,,,,,,,186.5509687,0.607273333,187.6740712,v,1,0.510065375,None,,,,,,,,final_pushkar,1,2023-10-16_08h14.12.312,oct 9 class,2023.2.2,120.356919,2023-10-16 08h14.23.043823 +0530
150,v,random,0,0,0,0,39,3,159,3,,,,,187.6833407,,,,,,,187.6749705,0.606200333,188.7656408,v,1,0.477840375,None,,,,,,,,final_pushkar,1,2023-10-16_08h14.12.312,oct 9 class,2023.2.2,120.356919,2023-10-16 08h14.23.043823 +0530
-150,z,random,0,0,0,0,40,0,160,0,,,,,188.7736338,,,,,,,188.7665243,0.614952,189.8315621,z,1,0.439085125,None,,,,,,,,final_pushkar,1,2023-10-16_08h14.12.312,oct 9 class,2023.2.2,120.356919,2023-10-16 08h14.23.043823 +0530
150,v,random,0,0,0,0,40,1,161,3,,,,,189.8479014,,,,,,,189.8329045,0.615451417,190.8820021,v,1,0.421218375,None,,,,,,,,final_pushkar,1,2023-10-16_08h14.12.312,oct 9 class,2023.2.2,120.356919,2023-10-16 08h14.23.043823 +0530
150,v,random,0,0,0,0,40,2,162,3,,,,,190.8927692,,,,,,,190.8833396,0.608287959,191.9216956,v,1,0.428993791,None,,,,,,,,final_pushkar,1,2023-10-16_08h14.12.312,oct 9 class,2023.2.2,120.356919,2023-10-16 08h14.23.043823 +0530
150,v,random,0,0,0,0,40,3,163,3,,,,,191.9301163,,,,,,,191.9224503,0.6087795,192.9083261,v,1,0.375600083,None,,,,,,,,final_pushkar,1,2023-10-16_08h14.12.312,oct 9 class,2023.2.2,120.356919,2023-10-16 08h14.23.043823 +0530
150,v,random,0,0,0,0,41,0,164,3,,,,,192.9178005,,,,,,,192.9092219,0.607539417,193.8500327,v,1,0.33284025,None,,,,,,,,final_pushkar,1,2023-10-16_08h14.12.312,oct 9 class,2023.2.2,120.356919,2023-10-16 08h14.23.043823 +0530
-50,x,random,0,0,0,0,41,1,165,1,,,,,193.8589365,,,,,,,193.8509215,0.604911125,195.1394727,x,1,0.67670825,None,,,,,,,,final_pushkar,1,2023-10-16_08h14.12.312,oct 9 class,2023.2.2,120.356919,2023-10-16 08h14.23.043823 +0530
50,c,random,0,0,0,0,41,2,166,2,,,,,195.1489966,,,,,,,195.1403163,0.607782167,196.281889,c,1,0.530591958,None,,,,,,,,final_pushkar,1,2023-10-16_08h14.12.312,oct 9 class,2023.2.2,120.356919,2023-10-16 08h14.23.043823 +0530
-50,x,random,0,0,0,0,41,3,167,1,,,,,196.289984,,,,,,,196.2827106,0.615700125,197.4914779,x,1,0.590510375,None,,,,,,,,final_pushkar,1,2023-10-16_08h14.12.312,oct 9 class,2023.2.2,120.356919,2023-10-16 08h14.23.043823 +0530
50,c,random,0,0,0,0,42,0,168,2,,,,,197.5016882,,,,,,,197.492636,0.605930417,198.680905,c,1,0.580751166,None,,,,,,,,final_pushkar,1,2023-10-16_08h14.12.312,oct 9 class,2023.2.2,120.356919,2023-10-16 08h14.23.043823 +0530
-150,z,random,0,0,0,0,42,1,169,0,,,,,198.688733,,,,,,,198.6817223,0.60376775,199.7898907,z,1,0.500568709,None,,,,,,,,final_pushkar,1,2023-10-16_08h14.12.312,oct 9 class,2023.2.2,120.356919,2023-10-16 08h14.23.043823 +0530
-50,x,random,0,0,0,0,42,2,170,1,,,,,199.7993182,,,,,,,199.7907886,0.601234167,201.1077465,x,1,0.7095555,None,,,,,,,,final_pushkar,1,2023-10-16_08h14.12.312,oct 9 class,2023.2.2,120.356919,2023-10-16 08h14.23.043823 +0530
-50,x,random,0,0,0,0,42,3,171,1,,,,,201.117379,,,,,,,201.1086462,0.606211417,202.1387345,x,1,0.417381625,None,,,,,,,,final_pushkar,1,2023-10-16_08h14.12.312,oct 9 class,2023.2.2,120.356919,2023-10-16 08h14.23.043823 +0530
-50,x,random,0,0,0,0,43,0,172,1,,,,,202.1468633,,,,,,,202.1395488,0.602405958,203.1089635,x,1,0.366161458,None,,,,,,,,final_pushkar,1,2023-10-16_08h14.12.312,oct 9 class,2023.2.2,120.356919,2023-10-16 08h14.23.043823 +0530
50,c,random,0,0,0,0,43,1,173,2,,,,,203.1189223,,,,,,,203.1102623,0.604788584,204.108455,c,1,0.391522791,None,,,,,,,,final_pushkar,1,2023-10-16_08h14.12.312,oct 9 class,2023.2.2,120.356919,2023-10-16 08h14.23.043823 +0530
-150,z,random,0,0,0,0,43,2,174,0,,,,,204.1175274,,,,,,,204.1092803,0.605431417,205.0817121,x,0,0.352495584,None,,,,,,,,final_pushkar,1,2023-10-16_08h14.12.312,oct 9 class,2023.2.2,120.356919,2023-10-16 08h14.23.043823 +0530
-50,x,random,0,0,0,0,43,3,175,1,,,,,205.0982593,,,,,,,205.0827102,0.616058167,206.5885875,x,1,0.887817042,None,,,,,,,,final_pushkar,1,2023-10-16_08h14.12.312,oct 9 class,2023.2.2,120.356919,2023-10-16 08h14.23.043823 +0530
-150,z,random,0,0,0,0,44,0,176,0,,,,,206.5971427,,,,,,,206.5894005,0.609249458,207.5745311,z,1,0.371756917,None,,,,,,,,final_pushkar,1,2023-10-16_08h14.12.312,oct 9 class,2023.2.2,120.356919,2023-10-16 08h14.23.043823 +0530
-50,x,random,0,0,0,0,44,1,177,1,,,,,207.5849268,,,,,,,207.5755607,0.606192167,208.6931466,x,1,0.506173791,None,,,,,,,,final_pushkar,1,2023-10-16_08h14.12.312,oct 9 class,2023.2.2,120.356919,2023-10-16 08h14.23.043823 +0530
50,c,random,0,0,0,0,44,2,178,2,,,,,208.7023518,,,,,,,208.6942128,0.60443125,209.8146312,c,1,0.512257208,None,,,,,,,,final_pushkar,1,2023-10-16_08h14.12.312,oct 9 class,2023.2.2,120.356919,2023-10-16 08h14.23.043823 +0530
-50,x,random,0,0,0,0,44,3,179,1,,,,,209.8225792,,,,,,,209.8154531,0.5993905,210.9054872,x,1,0.487158416,None,,,,,,,,final_pushkar,1,2023-10-16_08h14.12.312,oct 9 class,2023.2.2,120.356919,2023-10-16 08h14.23.043823 +0530
-150,z,random,0,0,0,0,45,0,180,0,,,,,210.9138734,,,,,,,210.9063018,0.60881975,211.9246385,z,1,0.408537875,None,,,,,,,,final_pushkar,1,2023-10-16_08h14.12.312,oct 9 class,2023.2.2,120.356919,2023-10-16 08h14.23.043823 +0530
150,v,random,0,0,0,0,45,1,181,3,,,,,211.9349295,,,,,,,211.9255288,0.606644292,213.0019426,v,1,0.464046167,None,,,,,,,,final_pushkar,1,2023-10-16_08h14.12.312,oct 9 class,2023.2.2,120.356919,2023-10-16 08h14.23.043823 +0530
50,c,random,0,0,0,0,45,2,182,2,,,,,213.0149125,,,,,,,213.0028395,0.599438958,214.0889113,c,1,0.484296458,None,,,,,,,,final_pushkar,1,2023-10-16_08h14.12.312,oct 9 class,2023.2.2,120.356919,2023-10-16 08h14.23.043823 +0530
150,v,random,0,0,0,0,45,3,183,3,,,,,214.0973012,,,,,,,214.0897248,0.602423167,215.131819,v,1,0.419659875,None,,,,,,,,final_pushkar,1,2023-10-16_08h14.12.312,oct 9 class,2023.2.2,120.356919,2023-10-16 08h14.23.043823 +0530
150,v,random,0,0,0,0,46,0,184,3,,,,,215.1486434,,,,,,,215.1327218,0.599411666,216.1154936,v,1,0.380820292,None,,,,,,,,final_pushkar,1,2023-10-16_08h14.12.312,oct 9 class,2023.2.2,120.356919,2023-10-16 08h14.23.043823 +0530
-50,x,random,0,0,0,0,46,1,185,1,,,,,216.1319548,,,,,,,216.1165001,0.599020792,217.3858743,x,1,0.667856166,None,,,,,,,,final_pushkar,1,2023-10-16_08h14.12.312,oct 9 class,2023.2.2,120.356919,2023-10-16 08h14.23.043823 +0530
150,v,random,0,0,0,0,46,2,186,3,,,,,217.3983313,,,,,,,217.3867898,0.61220775,218.415436,v,1,0.4116345,None,,,,,,,,final_pushkar,1,2023-10-16_08h14.12.312,oct 9 class,2023.2.2,120.356919,2023-10-16 08h14.23.043823 +0530
-150,z,random,0,0,0,0,46,3,187,0,,,,,218.432093,,,,,,,218.4165746,0.608652209,219.417572,z,1,0.391437625,None,,,,,,,,final_pushkar,1,2023-10-16_08h14.12.312,oct 9 class,2023.2.2,120.356919,2023-10-16 08h14.23.043823 +0530
150,v,random,0,0,0,0,47,0,188,3,,,,,219.4267925,,,,,,,219.418562,0.607240333,220.6505544,c,0,0.6243515,None,,,,,,,,final_pushkar,1,2023-10-16_08h14.12.312,oct 9 class,2023.2.2,120.356919,2023-10-16 08h14.23.043823 +0530
50,c,random,0,0,0,0,47,1,189,2,,,,,220.6588545,,,,,,,220.6514417,0.602200209,221.8694532,c,1,0.605822792,None,,,,,,,,final_pushkar,1,2023-10-16_08h14.12.312,oct 9 class,2023.2.2,120.356919,2023-10-16 08h14.23.043823 +0530
150,v,random,0,0,0,0,47,2,190,3,,,,,221.8815086,,,,,,,221.8703661,0.611556666,222.8991877,v,1,0.404055542,None,,,,,,,,final_pushkar,1,2023-10-16_08h14.12.312,oct 9 class,2023.2.2,120.356919,2023-10-16 08h14.23.043823 +0530
50,c,random,0,0,0,0,47,3,191,2,,,,,222.9078329,,,,,,,222.8999926,0.602970584,223.9910419,c,1,0.480597666,None,,,,,,,,final_pushkar,1,2023-10-16_08h14.12.312,oct 9 class,2023.2.2,120.356919,2023-10-16 08h14.23.043823 +0530
-50,x,random,0,0,0,0,48,0,192,1,,,,,224.0002356,,,,,,,223.9918624,0.606923208,225.2664818,x,1,0.661533417,None,,,,,,,,final_pushkar,1,2023-10-16_08h14.12.312,oct 9 class,2023.2.2,120.356919,2023-10-16 08h14.23.043823 +0530
-50,x,random,0,0,0,0,48,1,193,1,,,,,225.2753413,,,,,,,225.267376,0.615037209,226.3343726,x,1,0.445469416,None,,,,,,,,final_pushkar,1,2023-10-16_08h14.12.312,oct 9 class,2023.2.2,120.356919,2023-10-16 08h14.23.043823 +0530
-150,z,random,0,0,0,0,48,2,194,0,,,,,226.3431948,,,,,,,226.335259,0.614005083,227.3753497,z,1,0.423182959,None,,,,,,,,final_pushkar,1,2023-10-16_08h14.12.312,oct 9 class,2023.2.2,120.356919,2023-10-16 08h14.23.043823 +0530
-50,x,random,0,0,0,0,48,3,195,1,,,,,227.3856554,,,,,,,227.3764639,0.60503525,228.516273,x,1,0.523109666,None,,,,,,,,final_pushkar,1,2023-10-16_08h14.12.312,oct 9 class,2023.2.2,120.356919,2023-10-16 08h14.23.043823 +0530
150,v,random,0,0,0,0,49,0,196,3,,,,,228.5262649,,,,,,,228.5174084,0.603019125,229.5747888,v,1,0.452378792,None,,,,,,,,final_pushkar,1,2023-10-16_08h14.12.312,oct 9 class,2023.2.2,120.356919,2023-10-16 08h14.23.043823 +0530
-150,z,random,0,0,0,0,49,1,197,0,,,,,229.5981444,,,,,,,229.5756132,0.60682825,230.6341008,z,1,0.451138792,None,,,,,,,,final_pushkar,1,2023-10-16_08h14.12.312,oct 9 class,2023.2.2,120.356919,2023-10-16 08h14.23.043823 +0530
-50,x,random,0,0,0,0,49,2,198,1,,,,,230.6429428,,,,,,,230.6349943,0.599180667,231.6493414,x,1,0.409696125,None,,,,,,,,final_pushkar,1,2023-10-16_08h14.12.312,oct 9 class,2023.2.2,120.356919,2023-10-16 08h14.23.043823 +0530
-150,z,random,0,0,0,0,49,3,199,0,,,,,231.6590615,,,,,,,231.6504763,0.608749583,232.732546,z,1,0.47052875,None,,,,,,,,final_pushkar,1,2023-10-16_08h14.12.312,oct 9 class,2023.2.2,120.356919,2023-10-16 08h14.23.043823 +0530
-150,z,sequential,0,0,0,0,,,,,0,0,0,0,232.7550808,,,,,,,,,,,,,,232.7471597,0.603529833,233.7340393,z,1,0.396438792,None,final_pushkar,1,2023-10-16_08h14.12.312,oct 9 class,2023.2.2,120.356919,2023-10-16 08h14.23.043823 +0530
-50,x,sequential,0,0,0,0,,,,,0,1,1,1,233.7428023,,,,,,,,,,,,,,233.7353075,0.613956083,234.7565682,x,1,0.406403834,None,final_pushkar,1,2023-10-16_08h14.12.312,oct 9 class,2023.2.2,120.356919,2023-10-16 08h14.23.043823 +0530
50,c,sequential,0,0,0,0,,,,,0,2,2,2,234.7652647,,,,,,,,,,,,,,234.757389,0.608472292,235.7997985,c,1,0.424252625,None,final_pushkar,1,2023-10-16_08h14.12.312,oct 9 class,2023.2.2,120.356919,2023-10-16 08h14.23.043823 +0530
150,v,sequential,0,0,0,0,,,,,0,3,3,3,235.808984,,,,,,,,,,,,,,235.8007998,0.6086735,236.9228748,v,1,0.509481375,None,final_pushkar,1,2023-10-16_08h14.12.312,oct 9 class,2023.2.2,120.356919,2023-10-16 08h14.23.043823 +0530
-150,z,sequential,0,0,0,0,,,,,1,0,4,0,236.9311925,,,,,,,,,,,,,,236.9236947,0.608761958,237.915818,z,1,0.363680042,None,final_pushkar,1,2023-10-16_08h14.12.312,oct 9 class,2023.2.2,120.356919,2023-10-16 08h14.23.043823 +0530
-50,x,sequential,0,0,0,0,,,,,1,1,5,1,237.9323597,,,,,,,,,,,,,,237.9167096,0.603901583,238.9105337,x,1,0.379206,None,final_pushkar,1,2023-10-16_08h14.12.312,oct 9 class,2023.2.2,120.356919,2023-10-16 08h14.23.043823 +0530
50,c,sequential,0,0,0,0,,,,,1,2,6,2,238.9179933,,,,,,,,,,,,,,238.9114487,0.604720042,239.8600175,c,1,0.336312041,None,final_pushkar,1,2023-10-16_08h14.12.312,oct 9 class,2023.2.2,120.356919,2023-10-16 08h14.23.043823 +0530
150,v,sequential,0,0,0,0,,,,,1,3,7,3,239.8695792,,,,,,,,,,,,,,239.8609222,0.6049795,240.8590809,v,1,0.386856,None,final_pushkar,1,2023-10-16_08h14.12.312,oct 9 class,2023.2.2,120.356919,2023-10-16 08h14.23.043823 +0530
-150,z,sequential,0,0,0,0,,,,,2,0,8,0,240.8681592,,,,,,,,,,,,,,240.859908,0.606240875,241.7593142,z,1,0.290112042,None,final_pushkar,1,2023-10-16_08h14.12.312,oct 9 class,2023.2.2,120.356919,2023-10-16 08h14.23.043823 +0530
-50,x,sequential,0,0,0,0,,,,,2,1,9,1,241.769809,,,,,,,,,,,,,,241.7604445,0.608230166,242.5772625,x,1,0.198324334,None,final_pushkar,1,2023-10-16_08h14.12.312,oct 9 class,2023.2.2,120.356919,2023-10-16 08h14.23.043823 +0530
50,c,sequential,0,0,0,0,,,,,2,2,10,2,242.584941,,,,,,,,,,,,,,242.5781739,0.604432041,243.3586777,c,1,0.173493917,None,final_pushkar,1,2023-10-16_08h14.12.312,oct 9 class,2023.2.2,120.356919,2023-10-16 08h14.23.043823 +0530
150,v,sequential,0,0,0,0,,,,,2,3,11,3,243.3685518,,,,,,,,,,,,,,243.3597034,0.606507167,244.1758992,v,1,0.2074615,None,final_pushkar,1,2023-10-16_08h14.12.312,oct 9 class,2023.2.2,120.356919,2023-10-16 08h14.23.043823 +0530
-150,z,sequential,0,0,0,0,,,,,3,0,12,0,244.1863063,,,,,,,,,,,,,,244.1770661,0.605669791,244.9591589,z,1,0.174230333,None,final_pushkar,1,2023-10-16_08h14.12.312,oct 9 class,2023.2.2,120.356919,2023-10-16 08h14.23.043823 +0530
-50,x,sequential,0,0,0,0,,,,,3,1,13,1,244.9687996,,,,,,,,,,,,,,244.9600468,0.605932041,245.73338,x,1,0.150947541,None,final_pushkar,1,2023-10-16_08h14.12.312,oct 9 class,2023.2.2,120.356919,2023-10-16 08h14.23.043823 +0530
50,c,sequential,0,0,0,0,,,,,3,2,14,2,245.7415093,,,,,,,,,,,,,,245.734546,0.608528292,246.4499763,c,1,0.098042041,None,final_pushkar,1,2023-10-16_08h14.12.312,oct 9 class,2023.2.2,120.356919,2023-10-16 08h14.23.043823 +0530
150,v,sequential,0,0,0,0,,,,,3,3,15,3,246.4599572,,,,,,,,,,,,,,246.4511075,0.602637417,247.2494572,v,1,0.193528375,None,final_pushkar,1,2023-10-16_08h14.12.312,oct 9 class,2023.2.2,120.356919,2023-10-16 08h14.23.043823 +0530
-150,z,sequential,0,0,0,0,,,,,4,0,16,0,247.2661248,,,,,,,,,,,,,,247.2505823,0.603470667,248.0002298,z,1,0.13732175,None,final_pushkar,1,2023-10-16_08h14.12.312,oct 9 class,2023.2.2,120.356919,2023-10-16 08h14.23.043823 +0530
-50,x,sequential,0,0,0,0,,,,,4,1,17,1,248.0107669,,,,,,,,,,,,,,248.0015409,0.615045667,248.8170789,x,1,0.200014583,None,final_pushkar,1,2023-10-16_08h14.12.312,oct 9 class,2023.2.2,120.356919,2023-10-16 08h14.23.043823 +0530
50,c,sequential,0,0,0,0,,,,,4,2,18,2,248.8264107,,,,,,,,,,,,,,248.8181908,0.602861958,249.5501053,c,1,0.113999292,None,final_pushkar,1,2023-10-16_08h14.12.312,oct 9 class,2023.2.2,120.356919,2023-10-16 08h14.23.043823 +0530
150,v,sequential,0,0,0,0,,,,,4,3,19,3,249.5601515,,,,,,,,,,,,,,249.5512415,0.615316709,250.332906,v,1,0.145319292,None,final_pushkar,1,2023-10-16_08h14.12.312,oct 9 class,2023.2.2,120.356919,2023-10-16 08h14.23.043823 +0530
-150,z,sequential,0,0,0,0,,,,,5,0,20,0,250.3493538,,,,,,,,,,,,,,250.3340504,0.603075708,251.0998396,z,1,0.156534042,None,final_pushkar,1,2023-10-16_08h14.12.312,oct 9 class,2023.2.2,120.356919,2023-10-16 08h14.23.043823 +0530
-50,x,sequential,0,0,0,0,,,,,5,1,21,1,251.1095494,,,,,,,,,,,,,,251.1009791,0.615575167,251.9260818,x,1,0.205162875,None,final_pushkar,1,2023-10-16_08h14.12.312,oct 9 class,2023.2.2,120.356919,2023-10-16 08h14.23.043823 +0530
50,c,sequential,0,0,0,0,,,,,5,2,22,2,251.9365152,,,,,,,,,,,,,,251.92721,0.605534583,252.7001845,c,1,0.152392167,None,final_pushkar,1,2023-10-16_08h14.12.312,oct 9 class,2023.2.2,120.356919,2023-10-16 08h14.23.043823 +0530
150,v,sequential,0,0,0,0,,,,,5,3,23,3,252.7101795,,,,,,,,,,,,,,252.7013106,0.602731584,253.4834467,v,1,0.169080666,None,final_pushkar,1,2023-10-16_08h14.12.312,oct 9 class,2023.2.2,120.356919,2023-10-16 08h14.23.043823 +0530
-150,z,sequential,0,0,0,0,,,,,6,0,24,0,253.4926948,,,,,,,,,,,,,,253.4844529,0.602889666,254.2456532,z,1,0.146942042,None,final_pushkar,1,2023-10-16_08h14.12.312,oct 9 class,2023.2.2,120.356919,2023-10-16 08h14.23.043823 +0530
-50,x,sequential,0,0,0,0,,,,,6,1,25,1,254.2532742,,,,,,,,,,,,,,254.246814,0.603199875,254.9997106,x,1,0.143630208,None,final_pushkar,1,2023-10-16_08h14.12.312,oct 9 class,2023.2.2,120.356919,2023-10-16 08h14.23.043823 +0530
50,c,sequential,0,0,0,0,,,,,6,2,26,2,255.0163147,,,,,,,,,,,,,,255.0008448,0.603632584,255.7421056,c,1,0.131355042,None,final_pushkar,1,2023-10-16_08h14.12.312,oct 9 class,2023.2.2,120.356919,2023-10-16 08h14.23.043823 +0530
150,v,sequential,0,0,0,0,,,,,6,3,27,3,255.76579,,,,,,,,,,,,,,255.743114,0.606426167,256.5170156,v,1,0.158095584,None,final_pushkar,1,2023-10-16_08h14.12.312,oct 9 class,2023.2.2,120.356919,2023-10-16 08h14.23.043823 +0530
-150,z,sequential,0,0,0,0,,,,,7,0,28,0,256.5270601,,,,,,,,,,,,,,256.518167,0.615128,257.2619514,z,1,0.117235792,None,final_pushkar,1,2023-10-16_08h14.12.312,oct 9 class,2023.2.2,120.356919,2023-10-16 08h14.23.043823 +0530
-50,x,sequential,0,0,0,0,,,,,7,1,29,1,257.2702233,,,,,,,,,,,,,,257.2631197,0.60629,257.9860049,x,1,0.11414025,None,final_pushkar,1,2023-10-16_08h14.12.312,oct 9 class,2023.2.2,120.356919,2023-10-16 08h14.23.043823 +0530
50,c,sequential,0,0,0,0,,,,,7,2,30,2,257.9994316,,,,,,,,,,,,,,257.9870082,0.599402916,258.7502289,c,1,0.154724667,None,final_pushkar,1,2023-10-16_08h14.12.312,oct 9 class,2023.2.2,120.356919,2023-10-16 08h14.23.043823 +0530
150,v,sequential,0,0,0,0,,,,,7,3,31,3,258.7598249,,,,,,,,,,,,,,258.751364,0.602393375,259.4994858,v,1,0.133883416,None,final_pushkar,1,2023-10-16_08h14.12.312,oct 9 class,2023.2.2,120.356919,2023-10-16 08h14.23.043823 +0530
-150,z,sequential,0,0,0,0,,,,,8,0,32,0,259.5161825,,,,,,,,,,,,,,259.5005029,0.603723167,260.2211539,z,1,0.11369675,None,final_pushkar,1,2023-10-16_08h14.12.312,oct 9 class,2023.2.2,120.356919,2023-10-16 08h14.23.043823 +0530
-50,x,sequential,0,0,0,0,,,,,8,1,33,1,260.2324369,,,,,,,,,,,,,,260.2221561,0.604349917,260.9100224,x,1,0.076227125,None,final_pushkar,1,2023-10-16_08h14.12.312,oct 9 class,2023.2.2,120.356919,2023-10-16 08h14.23.043823 +0530
50,c,sequential,0,0,0,0,,,,,8,2,34,2,260.9202423,,,,,,,,,,,,,,260.9111893,0.608169375,261.5664597,c,1,0.0396965,None,final_pushkar,1,2023-10-16_08h14.12.312,oct 9 class,2023.2.2,120.356919,2023-10-16 08h14.23.043823 +0530
150,v,sequential,0,0,0,0,,,,,8,3,35,3,261.5831135,,,,,,,,,,,,,,261.5675993,0.615903,262.2837708,v,1,0.09986125,None,final_pushkar,1,2023-10-16_08h14.12.312,oct 9 class,2023.2.2,120.356919,2023-10-16 08h14.23.043823 +0530
-150,z,sequential,0,0,0,0,,,,,9,0,36,0,262.2932013,,,,,,,,,,,,,,262.2847593,0.608810709,263.0197379,z,1,0.118891333,None,final_pushkar,1,2023-10-16_08h14.12.312,oct 9 class,2023.2.2,120.356919,2023-10-16 08h14.23.043823 +0530
-50,x,sequential,0,0,0,0,,,,,9,1,37,1,263.0327639,,,,,,,,,,,,,,263.0207386,0.612444458,263.7168203,x,1,0.077591708,None,final_pushkar,1,2023-10-16_08h14.12.312,oct 9 class,2023.2.2,120.356919,2023-10-16 08h14.23.043823 +0530
50,c,sequential,0,0,0,0,,,,,9,2,38,2,263.7268151,,,,,,,,,,,,,,263.7179479,0.60313725,264.3432303,c,1,0.019364542,None,final_pushkar,1,2023-10-16_08h14.12.312,oct 9 class,2023.2.2,120.356919,2023-10-16 08h14.23.043823 +0530
150,v,sequential,0,0,0,0,,,,,9,3,39,3,264.3538875,,,,,,,,,,,,,,264.3445263,0.605760708,265.0339957,v,1,0.074610083,None,final_pushkar,1,2023-10-16_08h14.12.312,oct 9 class,2023.2.2,120.356919,2023-10-16 08h14.23.043823 +0530
-150,z,sequential,0,0,0,0,,,,,10,0,40,0,265.044368,,,,,,,,,,,,,,265.0352871,0.602948625,265.7263723,z,1,0.083398208,None,final_pushkar,1,2023-10-16_08h14.12.312,oct 9 class,2023.2.2,120.356919,2023-10-16 08h14.23.043823 +0530
-50,x,sequential,0,0,0,0,,,,,10,1,41,1,265.7367378,,,,,,,,,,,,,,265.7275111,0.605739666,266.384037,x,1,0.044809625,None,final_pushkar,1,2023-10-16_08h14.12.312,oct 9 class,2023.2.2,120.356919,2023-10-16 08h14.23.043823 +0530
50,c,sequential,0,0,0,0,,,,,10,2,42,2,266.3945415,,,,,,,,,,,,,,266.3853626,0.608274667,267.521326,c,1,0.517633958,None,final_pushkar,1,2023-10-16_08h14.12.312,oct 9 class,2023.2.2,120.356919,2023-10-16 08h14.23.043823 +0530
150,v,sequential,0,0,0,0,,,,,10,3,43,3,267.5328298,,,,,,,,,,,,,,267.5223565,0.610642417,268.2098566,v,1,0.069265709,None,final_pushkar,1,2023-10-16_08h14.12.312,oct 9 class,2023.2.2,120.356919,2023-10-16 08h14.23.043823 +0530
-150,z,sequential,0,0,0,0,,,,,11,0,44,0,268.2201305,,,,,,,,,,,,,,268.2109763,0.605616541,268.8594788,z,1,0.038770292,None,final_pushkar,1,2023-10-16_08h14.12.312,oct 9 class,2023.2.2,120.356919,2023-10-16 08h14.23.043823 +0530
-50,x,sequential,0,0,0,0,,,,,11,1,45,1,268.8694227,,,,,,,,,,,,,,268.86062,0.608891875,269.5669386,x,1,0.094458708,None,final_pushkar,1,2023-10-16_08h14.12.312,oct 9 class,2023.2.2,120.356919,2023-10-16 08h14.23.043823 +0530
50,c,sequential,0,0,0,0,,,,,11,2,46,2,269.5757258,,,,,,,,,,,,,,269.5678209,0.599027625,270.2596415,c,1,0.084837542,None,final_pushkar,1,2023-10-16_08h14.12.312,oct 9 class,2023.2.2,120.356919,2023-10-16 08h14.23.043823 +0530
150,v,sequential,0,0,0,0,,,,,11,3,47,3,270.2695355,,,,,,,,,,,,,,270.260758,0.608992,270.9676434,v,1,0.0973945,None,final_pushkar,1,2023-10-16_08h14.12.312,oct 9 class,2023.2.2,120.356919,2023-10-16 08h14.23.043823 +0530
-150,z,sequential,0,0,0,0,,,,,12,0,48,0,270.9775027,,,,,,,,,,,,,,270.9687603,0.615054416,271.700633,z,1,0.113142666,None,final_pushkar,1,2023-10-16_08h14.12.312,oct 9 class,2023.2.2,120.356919,2023-10-16 08h14.23.043823 +0530
-50,x,sequential,0,0,0,0,,,,,12,1,49,1,271.7104829,,,,,,,,,,,,,,271.70174,0.602710333,272.4337013,x,1,0.124637834,None,final_pushkar,1,2023-10-16_08h14.12.312,oct 9 class,2023.2.2,120.356919,2023-10-16 08h14.23.043823 +0530
50,c,sequential,0,0,0,0,,,,,12,2,50,2,272.4498638,,,,,,,,,,,,,,272.4350124,0.602452584,273.1665546,c,1,0.125822083,None,final_pushkar,1,2023-10-16_08h14.12.312,oct 9 class,2023.2.2,120.356919,2023-10-16 08h14.23.043823 +0530
150,v,sequential,0,0,0,0,,,,,12,3,51,3,273.183367,,,,,,,,,,,,,,273.1676856,0.616089375,273.9214113,v,1,0.126571583,None,final_pushkar,1,2023-10-16_08h14.12.312,oct 9 class,2023.2.2,120.356919,2023-10-16 08h14.23.043823 +0530
-150,z,sequential,0,0,0,0,,,,,13,0,52,0,273.9330333,,,,,,,,,,,,,,273.9224305,0.611379541,274.600613,z,1,0.062508625,None,final_pushkar,1,2023-10-16_08h14.12.312,oct 9 class,2023.2.2,120.356919,2023-10-16 08h14.23.043823 +0530
-50,x,sequential,0,0,0,0,,,,,13,1,53,1,274.6107555,,,,,,,,,,,,,,274.6019103,0.614705167,275.3211271,x,1,0.102848291,None,final_pushkar,1,2023-10-16_08h14.12.312,oct 9 class,2023.2.2,120.356919,2023-10-16 08h14.23.043823 +0530
50,c,sequential,0,0,0,0,,,,,13,2,54,2,275.3322626,,,,,,,,,,,,,,275.3221275,0.611645792,276.0333723,c,1,0.085712416,None,final_pushkar,1,2023-10-16_08h14.12.312,oct 9 class,2023.2.2,120.356919,2023-10-16 08h14.23.043823 +0530
150,v,sequential,0,0,0,0,,,,,13,3,55,3,276.049991,,,,,,,,,,,,,,276.0345291,0.616007583,276.7788996,v,1,0.116991791,None,final_pushkar,1,2023-10-16_08h14.12.312,oct 9 class,2023.2.2,120.356919,2023-10-16 08h14.23.043823 +0530
-150,z,sequential,0,0,0,0,,,,,14,0,56,0,276.7873356,,,,,,,,,,,,,,276.7800719,0.607564,277.5263421,z,1,0.132014708,None,final_pushkar,1,2023-10-16_08h14.12.312,oct 9 class,2023.2.2,120.356919,2023-10-16 08h14.23.043823 +0530
-50,x,sequential,0,0,0,0,,,,,14,1,57,1,277.5366128,,,,,,,,,,,,,,277.5274921,0.606034458,278.1891438,x,1,0.044310208,None,final_pushkar,1,2023-10-16_08h14.12.312,oct 9 class,2023.2.2,120.356919,2023-10-16 08h14.23.043823 +0530
50,c,sequential,0,0,0,0,,,,,14,2,58,2,278.1997893,,,,,,,,,,,,,,278.1901619,0.610344542,278.8116761,c,1,0.008968541,None,final_pushkar,1,2023-10-16_08h14.12.312,oct 9 class,2023.2.2,120.356919,2023-10-16 08h14.23.043823 +0530
150,v,sequential,0,0,0,0,,,,,14,3,59,3,278.8221228,,,,,,,,,,,,,,278.8129638,0.603886167,279.4503541,v,1,0.03297425,None,final_pushkar,1,2023-10-16_08h14.12.312,oct 9 class,2023.2.2,120.356919,2023-10-16 08h14.23.043823 +0530
-150,z,sequential,0,0,0,0,,,,,15,0,60,0,279.4668457,,,,,,,,,,,,,,279.4516086,0.61573175,280.1339799,z,1,0.062995083,None,final_pushkar,1,2023-10-16_08h14.12.312,oct 9 class,2023.2.2,120.356919,2023-10-16 08h14.23.043823 +0530
-50,x,sequential,0,0,0,0,,,,,15,1,61,1,280.1440703,,,,,,,,,,,,,,280.1351533,0.615498208,280.7938028,x,1,0.035731708,None,final_pushkar,1,2023-10-16_08h14.12.312,oct 9 class,2023.2.2,120.356919,2023-10-16 08h14.23.043823 +0530
50,c,sequential,0,0,0,0,,,,,15,2,62,2,280.8041664,,,,,,,,,,,,,,280.7951067,0.60548725,281.4460559,c,1,0.033680417,None,final_pushkar,1,2023-10-16_08h14.12.312,oct 9 class,2023.2.2,120.356919,2023-10-16 08h14.23.043823 +0530
150,v,sequential,0,0,0,0,,,,,15,3,63,3,281.4539841,,,,,,,,,,,,,,281.4473823,0.603400042,282.0934257,v,1,0.039942,None,final_pushkar,1,2023-10-16_08h14.12.312,oct 9 class,2023.2.2,120.356919,2023-10-16 08h14.23.043823 +0530
-150,z,sequential,0,0,0,0,,,,,16,0,64,0,282.1040327,,,,,,,,,,,,,,282.0945749,0.605881083,282.800399,z,1,0.081095459,None,final_pushkar,1,2023-10-16_08h14.12.312,oct 9 class,2023.2.2,120.356919,2023-10-16 08h14.23.043823 +0530
-50,x,sequential,0,0,0,0,,,,,16,1,65,1,282.8168614,,,,,,,,,,,,,,282.8015158,0.603301417,283.5274278,x,1,0.118720083,None,final_pushkar,1,2023-10-16_08h14.12.312,oct 9 class,2023.2.2,120.356919,2023-10-16 08h14.23.043823 +0530
50,c,sequential,0,0,0,0,,,,,16,2,66,2,283.5375038,,,,,,,,,,,,,,283.5285748,0.605404959,284.2123717,c,1,0.067571958,None,final_pushkar,1,2023-10-16_08h14.12.312,oct 9 class,2023.2.2,120.356919,2023-10-16 08h14.23.043823 +0530
150,v,sequential,0,0,0,0,,,,,16,3,67,3,284.2205345,,,,,,,,,,,,,,284.213549,0.603771083,284.9033738,v,1,0.083490375,None,final_pushkar,1,2023-10-16_08h14.12.312,oct 9 class,2023.2.2,120.356919,2023-10-16 08h14.23.043823 +0530
-150,z,sequential,0,0,0,0,,,,,17,0,68,0,284.9166188,,,,,,,,,,,,,,284.9043819,0.613080167,285.5936471,z,1,0.073969958,None,final_pushkar,1,2023-10-16_08h14.12.312,oct 9 class,2023.2.2,120.356919,2023-10-16 08h14.23.043823 +0530
-50,x,sequential,0,0,0,0,,,,,17,1,69,1,285.6041753,,,,,,,,,,,,,,285.5947865,0.600453584,286.6497389,x,1,0.450302792,None,final_pushkar,1,2023-10-16_08h14.12.312,oct 9 class,2023.2.2,120.356919,2023-10-16 08h14.23.043823 +0530
50,c,sequential,0,0,0,0,,,,,17,2,70,2,286.6579226,,,,,,,,,,,,,,286.650586,0.599445584,287.3105773,c,1,0.0529015,None,final_pushkar,1,2023-10-16_08h14.12.312,oct 9 class,2023.2.2,120.356919,2023-10-16 08h14.23.043823 +0530
150,v,sequential,0,0,0,0,,,,,17,3,71,3,287.3207473,,,,,,,,,,,,,,287.311893,0.604416291,287.9671355,v,1,0.048196834,None,final_pushkar,1,2023-10-16_08h14.12.312,oct 9 class,2023.2.2,120.356919,2023-10-16 08h14.23.043823 +0530
-150,z,sequential,0,0,0,0,,,,,18,0,72,0,287.9755705,,,,,,,,,,,,,,287.9681488,0.599260333,288.7345031,z,1,0.157012417,None,final_pushkar,1,2023-10-16_08h14.12.312,oct 9 class,2023.2.2,120.356919,2023-10-16 08h14.23.043823 +0530
-50,x,sequential,0,0,0,0,,,,,18,1,73,1,288.744645,,,,,,,,,,,,,,288.735642,0.615154042,289.4172878,x,1,0.052228667,None,final_pushkar,1,2023-10-16_08h14.12.312,oct 9 class,2023.2.2,120.356919,2023-10-16 08h14.23.043823 +0530
50,c,sequential,0,0,0,0,,,,,18,2,74,2,289.4338043,,,,,,,,,,,,,,289.4185882,0.603349958,290.493501,c,1,0.464902459,None,final_pushkar,1,2023-10-16_08h14.12.312,oct 9 class,2023.2.2,120.356919,2023-10-16 08h14.23.043823 +0530
150,v,sequential,0,0,0,0,,,,,18,3,75,3,290.5030755,,,,,,,,,,,,,,290.4943973,0.60570375,291.2679702,v,1,0.151331209,None,final_pushkar,1,2023-10-16_08h14.12.312,oct 9 class,2023.2.2,120.356919,2023-10-16 08h14.23.043823 +0530
-150,z,sequential,0,0,0,0,,,,,19,0,76,0,291.2760254,,,,,,,,,,,,,,291.2691582,0.615104416,292.0178469,z,1,0.124255375,None,final_pushkar,1,2023-10-16_08h14.12.312,oct 9 class,2023.2.2,120.356919,2023-10-16 08h14.23.043823 +0530
-50,x,sequential,0,0,0,0,,,,,19,1,77,1,292.027433,,,,,,,,,,,,,,292.0188939,0.608718417,292.7209425,x,1,0.091903292,None,final_pushkar,1,2023-10-16_08h14.12.312,oct 9 class,2023.2.2,120.356919,2023-10-16 08h14.23.043823 +0530
50,c,sequential,0,0,0,0,,,,,19,2,78,2,292.7335,,,,,,,,,,,,,,292.7220567,0.611806834,293.4340672,c,1,0.07882125,None,final_pushkar,1,2023-10-16_08h14.12.312,oct 9 class,2023.2.2,120.356919,2023-10-16 08h14.23.043823 +0530
150,v,sequential,0,0,0,0,,,,,19,3,79,3,293.4505844,,,,,,,,,,,,,,293.4351939,0.615612833,294.2007986,v,1,0.13388825,None,final_pushkar,1,2023-10-16_08h14.12.312,oct 9 class,2023.2.2,120.356919,2023-10-16 08h14.23.043823 +0530
-150,z,sequential,0,0,0,0,,,,,20,0,80,0,294.2171284,,,,,,,,,,,,,,294.2021033,0.615608084,294.946204,z,1,0.117087791,None,final_pushkar,1,2023-10-16_08h14.12.312,oct 9 class,2023.2.2,120.356919,2023-10-16 08h14.23.043823 +0530
-50,x,sequential,0,0,0,0,,,,,20,1,81,1,294.9545203,,,,,,,,,,,,,,294.9473537,0.603636542,295.6785978,x,1,0.127110416,None,final_pushkar,1,2023-10-16_08h14.12.312,oct 9 class,2023.2.2,120.356919,2023-10-16 08h14.23.043823 +0530
50,c,sequential,0,0,0,0,,,,,20,2,82,2,295.6876824,,,,,,,,,,,,,,295.6795854,0.60460625,296.3602723,c,1,0.068397958,None,final_pushkar,1,2023-10-16_08h14.12.312,oct 9 class,2023.2.2,120.356919,2023-10-16 08h14.23.043823 +0530
150,v,sequential,0,0,0,0,,,,,20,3,83,3,296.3700428,,,,,,,,,,,,,,296.3613067,0.6060675,297.0958306,v,1,0.118243667,None,final_pushkar,1,2023-10-16_08h14.12.312,oct 9 class,2023.2.2,120.356919,2023-10-16 08h14.23.043823 +0530
-150,z,sequential,0,0,0,0,,,,,21,0,84,0,297.1042295,,,,,,,,,,,,,,297.0969643,0.604015875,297.8370108,z,1,0.133893792,None,final_pushkar,1,2023-10-16_08h14.12.312,oct 9 class,2023.2.2,120.356919,2023-10-16 08h14.23.043823 +0530
-50,x,sequential,0,0,0,0,,,,,21,1,85,1,297.8503063,,,,,,,,,,,,,,297.8381132,0.606189125,298.5843376,x,1,0.126257041,None,final_pushkar,1,2023-10-16_08h14.12.312,oct 9 class,2023.2.2,120.356919,2023-10-16 08h14.23.043823 +0530
50,c,sequential,0,0,0,0,,,,,21,2,86,2,298.600627,,,,,,,,,,,,,,298.5854676,0.603109167,299.3370573,c,1,0.14019125,None,final_pushkar,1,2023-10-16_08h14.12.312,oct 9 class,2023.2.2,120.356919,2023-10-16 08h14.23.043823 +0530
150,v,sequential,0,0,0,0,,,,,21,3,87,3,299.3503639,,,,,,,,,,,,,,299.338205,0.599843375,300.085184,v,1,0.146574584,None,final_pushkar,1,2023-10-16_08h14.12.312,oct 9 class,2023.2.2,120.356919,2023-10-16 08h14.23.043823 +0530
-150,z,sequential,0,0,0,0,,,,,22,0,88,0,300.0951456,,,,,,,,,,,,,,300.0862947,0.614863958,300.7681502,z,1,0.06648575,None,final_pushkar,1,2023-10-16_08h14.12.312,oct 9 class,2023.2.2,120.356919,2023-10-16 08h14.23.043823 +0530
-50,x,sequential,0,0,0,0,,,,,22,1,89,1,300.7781448,,,,,,,,,,,,,,300.7692784,0.615246666,301.5123095,x,1,0.116855833,None,final_pushkar,1,2023-10-16_08h14.12.312,oct 9 class,2023.2.2,120.356919,2023-10-16 08h14.23.043823 +0530
50,c,sequential,0,0,0,0,,,,,22,2,90,2,301.5202558,,,,,,,,,,,,,,301.5134913,0.604070792,302.1317485,c,1,0.001590417,None,final_pushkar,1,2023-10-16_08h14.12.312,oct 9 class,2023.2.2,120.356919,2023-10-16 08h14.23.043823 +0530
150,v,sequential,0,0,0,0,,,,,22,3,91,3,302.1399065,,,,,,,,,,,,,,302.1331032,0.601254958,302.8181815,v,1,0.067737583,None,final_pushkar,1,2023-10-16_08h14.12.312,oct 9 class,2023.2.2,120.356919,2023-10-16 08h14.23.043823 +0530
-150,z,sequential,0,0,0,0,,,,,23,0,92,0,302.8260506,,,,,,,,,,,,,,302.819319,0.608459833,303.4388021,z,1,0.009601041,None,final_pushkar,1,2023-10-16_08h14.12.312,oct 9 class,2023.2.2,120.356919,2023-10-16 08h14.23.043823 +0530
-50,x,sequential,0,0,0,0,,,,,23,1,93,1,303.4496043,,,,,,,,,,,,,,303.440085,0.604545583,304.1181543,x,1,0.058408458,None,final_pushkar,1,2023-10-16_08h14.12.312,oct 9 class,2023.2.2,120.356919,2023-10-16 08h14.23.043823 +0530
50,c,sequential,0,0,0,0,,,,,23,2,94,2,304.1283796,,,,,,,,,,,,,,304.1194619,0.602775167,305.2183005,c,1,0.495501958,None,final_pushkar,1,2023-10-16_08h14.12.312,oct 9 class,2023.2.2,120.356919,2023-10-16 08h14.23.043823 +0530
150,v,sequential,0,0,0,0,,,,,23,3,95,3,305.2286613,,,,,,,,,,,,,,305.2195767,0.602531334,305.8846011,v,1,0.045782167,None,final_pushkar,1,2023-10-16_08h14.12.312,oct 9 class,2023.2.2,120.356919,2023-10-16 08h14.23.043823 +0530
-150,z,sequential,0,0,0,0,,,,,24,0,96,0,305.892794,,,,,,,,,,,,,,305.8859059,0.608745792,306.6014842,z,1,0.096610833,None,final_pushkar,1,2023-10-16_08h14.12.312,oct 9 class,2023.2.2,120.356919,2023-10-16 08h14.23.043823 +0530
-50,x,sequential,0,0,0,0,,,,,24,1,97,1,306.6112787,,,,,,,,,,,,,,306.602602,0.614957541,307.2846906,x,1,0.057543167,None,final_pushkar,1,2023-10-16_08h14.12.312,oct 9 class,2023.2.2,120.356919,2023-10-16 08h14.23.043823 +0530
50,c,sequential,0,0,0,0,,,,,24,2,98,2,307.2944645,,,,,,,,,,,,,,307.285835,0.615437958,308.9184526,c,1,1.016864208,None,final_pushkar,1,2023-10-16_08h14.12.312,oct 9 class,2023.2.2,120.356919,2023-10-16 08h14.23.043823 +0530
150,v,sequential,0,0,0,0,,,,,24,3,99,3,308.9269561,,,,,,,,,,,,,,308.9192643,0.602555708,309.6606781,v,1,0.134564792,None,final_pushkar,1,2023-10-16_08h14.12.312,oct 9 class,2023.2.2,120.356919,2023-10-16 08h14.23.043823 +0530
-150,z,sequential,0,0,0,0,,,,,25,0,100,0,309.6712235,,,,,,,,,,,,,,309.6618394,0.605906291,310.435084,z,1,0.154834125,None,final_pushkar,1,2023-10-16_08h14.12.312,oct 9 class,2023.2.2,120.356919,2023-10-16 08h14.23.043823 +0530
-50,x,sequential,0,0,0,0,,,,,25,1,101,1,310.4451086,,,,,,,,,,,,,,310.4362112,0.61512875,311.1278753,x,1,0.076081833,None,final_pushkar,1,2023-10-16_08h14.12.312,oct 9 class,2023.2.2,120.356919,2023-10-16 08h14.23.043823 +0530
50,c,sequential,0,0,0,0,,,,,25,2,102,2,311.1383252,,,,,,,,,,,,,,311.1290103,0.605242917,311.8280102,c,1,0.088518125,None,final_pushkar,1,2023-10-16_08h14.12.312,oct 9 class,2023.2.2,120.356919,2023-10-16 08h14.23.043823 +0530
150,v,sequential,0,0,0,0,,,,,25,3,103,3,311.8380323,,,,,,,,,,,,,,311.8291631,0.608150209,312.5517208,v,1,0.106192375,None,final_pushkar,1,2023-10-16_08h14.12.312,oct 9 class,2023.2.2,120.356919,2023-10-16 08h14.23.043823 +0530
-150,z,sequential,0,0,0,0,,,,,26,0,104,0,312.5624945,,,,,,,,,,,,,,312.5530385,0.608530042,313.3185243,z,1,0.147064333,None,final_pushkar,1,2023-10-16_08h14.12.312,oct 9 class,2023.2.2,120.356919,2023-10-16 08h14.23.043823 +0530
-50,x,sequential,0,0,0,0,,,,,26,1,105,1,313.3288486,,,,,,,,,,,,,,313.3196752,0.602643125,314.0183712,x,1,0.081227875,None,final_pushkar,1,2023-10-16_08h14.12.312,oct 9 class,2023.2.2,120.356919,2023-10-16 08h14.23.043823 +0530
50,c,sequential,0,0,0,0,,,,,26,2,106,2,314.02876,,,,,,,,,,,,,,314.01964,0.608435375,314.6850091,c,1,0.05007125,None,final_pushkar,1,2023-10-16_08h14.12.312,oct 9 class,2023.2.2,120.356919,2023-10-16 08h14.23.043823 +0530
150,v,sequential,0,0,0,0,,,,,26,3,107,3,314.6943394,,,,,,,,,,,,,,314.6861526,0.602764917,315.4186005,v,1,0.1122965,None,final_pushkar,1,2023-10-16_08h14.12.312,oct 9 class,2023.2.2,120.356919,2023-10-16 08h14.23.043823 +0530
-150,z,sequential,0,0,0,0,,,,,27,0,108,0,315.4265055,,,,,,,,,,,,,,315.4197486,0.608453083,316.1345311,z,1,0.101354583,None,final_pushkar,1,2023-10-16_08h14.12.312,oct 9 class,2023.2.2,120.356919,2023-10-16 08h14.23.043823 +0530
-50,x,sequential,0,0,0,0,,,,,27,1,109,1,316.1511662,,,,,,,,,,,,,,316.1356853,0.60297525,316.8767254,x,1,0.131428791,None,final_pushkar,1,2023-10-16_08h14.12.312,oct 9 class,2023.2.2,120.356919,2023-10-16 08h14.23.043823 +0530
50,c,sequential,0,0,0,0,,,,,27,2,110,2,316.9002898,,,,,,,,,,,,,,316.8776055,0.6021705,317.6177475,c,1,0.136449541,None,final_pushkar,1,2023-10-16_08h14.12.312,oct 9 class,2023.2.2,120.356919,2023-10-16 08h14.23.043823 +0530
150,v,sequential,0,0,0,0,,,,,27,3,111,3,317.634358,,,,,,,,,,,,,,317.6189163,0.615924541,318.3602675,v,1,0.117649167,None,final_pushkar,1,2023-10-16_08h14.12.312,oct 9 class,2023.2.2,120.356919,2023-10-16 08h14.23.043823 +0530
-150,z,sequential,0,0,0,0,,,,,28,0,112,0,318.3702617,,,,,,,,,,,,,,318.36127,0.606871667,319.0852484,z,1,0.103743958,None,final_pushkar,1,2023-10-16_08h14.12.312,oct 9 class,2023.2.2,120.356919,2023-10-16 08h14.23.043823 +0530
-50,x,sequential,0,0,0,0,,,,,28,1,113,1,319.0957793,,,,,,,,,,,,,,319.0865696,0.608363292,319.8103711,x,1,0.110380083,None,final_pushkar,1,2023-10-16_08h14.12.312,oct 9 class,2023.2.2,120.356919,2023-10-16 08h14.23.043823 +0530
50,c,sequential,0,0,0,0,,,,,28,2,114,2,319.8204124,,,,,,,,,,,,,,319.8113928,0.606829708,320.5778716,c,1,0.157440375,None,final_pushkar,1,2023-10-16_08h14.12.312,oct 9 class,2023.2.2,120.356919,2023-10-16 08h14.23.043823 +0530
150,v,sequential,0,0,0,0,,,,,28,3,115,3,320.5879669,,,,,,,,,,,,,,320.579,0.605749583,321.3111255,v,1,0.125441625,None,final_pushkar,1,2023-10-16_08h14.12.312,oct 9 class,2023.2.2,120.356919,2023-10-16 08h14.23.043823 +0530
-150,z,sequential,0,0,0,0,,,,,29,0,116,0,321.3214227,,,,,,,,,,,,,,321.3122375,0.605544375,322.0853278,z,1,0.1553895,None,final_pushkar,1,2023-10-16_08h14.12.312,oct 9 class,2023.2.2,120.356919,2023-10-16 08h14.23.043823 +0530
-50,x,sequential,0,0,0,0,,,,,29,1,117,1,322.0952376,,,,,,,,,,,,,,322.0864543,0.602657834,322.8601973,x,1,0.163702,None,final_pushkar,1,2023-10-16_08h14.12.312,oct 9 class,2023.2.2,120.356919,2023-10-16 08h14.23.043823 +0530
50,c,sequential,0,0,0,0,,,,,29,2,118,2,322.8840624,,,,,,,,,,,,,,322.8611045,0.606732875,323.6117872,c,1,0.137599166,None,final_pushkar,1,2023-10-16_08h14.12.312,oct 9 class,2023.2.2,120.356919,2023-10-16 08h14.23.043823 +0530
150,v,sequential,0,0,0,0,,,,,29,3,119,3,323.6220399,,,,,,,,,,,,,,323.6129165,0.608043541,324.3685538,v,1,0.13669475,None,final_pushkar,1,2023-10-16_08h14.12.312,oct 9 class,2023.2.2,120.356919,2023-10-16 08h14.23.043823 +0530
-150,z,sequential,0,0,0,0,,,,,30,0,120,0,324.378386,,,,,,,,,,,,,,324.3696717,0.602887875,325.1781125,z,1,0.205141459,None,final_pushkar,1,2023-10-16_08h14.12.312,oct 9 class,2023.2.2,120.356919,2023-10-16 08h14.23.043823 +0530
-50,x,sequential,0,0,0,0,,,,,30,1,121,1,325.1874211,,,,,,,,,,,,,,325.1790094,0.605674375,325.868429,x,1,0.072445166,None,final_pushkar,1,2023-10-16_08h14.12.312,oct 9 class,2023.2.2,120.356919,2023-10-16 08h14.23.043823 +0530
50,c,sequential,0,0,0,0,,,,,30,2,122,2,325.8782246,,,,,,,,,,,,,,325.8695502,0.602888,326.9287737,c,1,0.452379917,None,final_pushkar,1,2023-10-16_08h14.12.312,oct 9 class,2023.2.2,120.356919,2023-10-16 08h14.23.043823 +0530
150,v,sequential,0,0,0,0,,,,,30,3,123,3,326.9376201,,,,,,,,,,,,,,326.9296626,0.605045875,327.685299,v,1,0.13769275,None,final_pushkar,1,2023-10-16_08h14.12.312,oct 9 class,2023.2.2,120.356919,2023-10-16 08h14.23.043823 +0530
-150,z,sequential,0,0,0,0,,,,,31,0,124,0,327.6946766,,,,,,,,,,,,,,327.6862949,0.608762875,328.4201096,z,1,0.124338416,None,final_pushkar,1,2023-10-16_08h14.12.312,oct 9 class,2023.2.2,120.356919,2023-10-16 08h14.23.043823 +0530
-50,x,sequential,0,0,0,0,,,,,31,1,125,1,328.4292788,,,,,,,,,,,,,,328.4210895,0.601818834,329.1134492,x,1,0.079619834,None,final_pushkar,1,2023-10-16_08h14.12.312,oct 9 class,2023.2.2,120.356919,2023-10-16 08h14.23.043823 +0530
50,c,sequential,0,0,0,0,,,,,31,2,126,2,329.1214105,,,,,,,,,,,,,,329.1144642,0.603925959,329.8682146,c,1,0.14207075,None,final_pushkar,1,2023-10-16_08h14.12.312,oct 9 class,2023.2.2,120.356919,2023-10-16 08h14.23.043823 +0530
150,v,sequential,0,0,0,0,,,,,31,3,127,3,329.8846334,,,,,,,,,,,,,,329.8693525,0.60272775,330.5983105,v,1,0.113457375,None,final_pushkar,1,2023-10-16_08h14.12.312,oct 9 class,2023.2.2,120.356919,2023-10-16 08h14.23.043823 +0530
-150,z,sequential,0,0,0,0,,,,,32,0,128,0,330.605918,,,,,,,,,,,,,,330.5994472,0.601885417,331.3282151,z,1,0.122646958,None,final_pushkar,1,2023-10-16_08h14.12.312,oct 9 class,2023.2.2,120.356919,2023-10-16 08h14.23.043823 +0530
-50,x,sequential,0,0,0,0,,,,,32,1,129,1,331.3387388,,,,,,,,,,,,,,331.3293592,0.605902334,332.0522976,x,1,0.108058791,None,final_pushkar,1,2023-10-16_08h14.12.312,oct 9 class,2023.2.2,120.356919,2023-10-16 08h14.23.043823 +0530
50,c,sequential,0,0,0,0,,,,,32,2,130,2,332.0628697,,,,,,,,,,,,,,332.0536171,0.614990375,332.7356017,c,1,0.055865083,None,final_pushkar,1,2023-10-16_08h14.12.312,oct 9 class,2023.2.2,120.356919,2023-10-16 08h14.23.043823 +0530
150,v,sequential,0,0,0,0,,,,,32,3,131,3,332.7456072,,,,,,,,,,,,,,332.736732,0.615253125,333.4783241,v,1,0.125328125,None,final_pushkar,1,2023-10-16_08h14.12.312,oct 9 class,2023.2.2,120.356919,2023-10-16 08h14.23.043823 +0530
-150,z,sequential,0,0,0,0,,,,,33,0,132,0,333.4886504,,,,,,,,,,,,,,333.4794355,0.605772375,334.1694032,z,1,0.083487042,None,final_pushkar,1,2023-10-16_08h14.12.312,oct 9 class,2023.2.2,120.356919,2023-10-16 08h14.23.043823 +0530
-50,x,sequential,0,0,0,0,,,,,33,1,133,1,334.1804006,,,,,,,,,,,,,,334.1706827,0.60168575,334.8520783,x,1,0.071596333,None,final_pushkar,1,2023-10-16_08h14.12.312,oct 9 class,2023.2.2,120.356919,2023-10-16 08h14.23.043823 +0530
50,c,sequential,0,0,0,0,,,,,33,2,134,2,334.8619418,,,,,,,,,,,,,,334.8531952,0.603304583,335.5233441,c,1,0.05514075,None,final_pushkar,1,2023-10-16_08h14.12.312,oct 9 class,2023.2.2,120.356919,2023-10-16 08h14.23.043823 +0530
150,v,sequential,0,0,0,0,,,,,33,3,135,3,335.5345965,,,,,,,,,,,,,,335.5244935,0.610503333,336.2957507,v,1,0.151542458,None,final_pushkar,1,2023-10-16_08h14.12.312,oct 9 class,2023.2.2,120.356919,2023-10-16 08h14.23.043823 +0530
-150,z,sequential,0,0,0,0,,,,,34,0,136,0,336.3177984,,,,,,,,,,,,,,336.2966578,0.605282209,337.0352846,z,1,0.126822084,None,final_pushkar,1,2023-10-16_08h14.12.312,oct 9 class,2023.2.2,120.356919,2023-10-16 08h14.23.043823 +0530
-50,x,sequential,0,0,0,0,,,,,34,1,137,1,337.0453112,,,,,,,,,,,,,,337.0364113,0.615619042,337.7695028,x,1,0.116847917,None,final_pushkar,1,2023-10-16_08h14.12.312,oct 9 class,2023.2.2,120.356919,2023-10-16 08h14.23.043823 +0530
50,c,sequential,0,0,0,0,,,,,34,2,138,2,337.7800191,,,,,,,,,,,,,,337.7707669,0.614774708,338.4386986,c,1,0.052649125,None,final_pushkar,1,2023-10-16_08h14.12.312,oct 9 class,2023.2.2,120.356919,2023-10-16 08h14.23.043823 +0530
150,v,sequential,0,0,0,0,,,,,34,3,139,3,338.4513231,,,,,,,,,,,,,,338.4398057,0.599337334,339.151668,v,1,0.097027208,None,final_pushkar,1,2023-10-16_08h14.12.312,oct 9 class,2023.2.2,120.356919,2023-10-16 08h14.23.043823 +0530
-150,z,sequential,0,0,0,0,,,,,35,0,140,0,339.1683305,,,,,,,,,,,,,,339.1528019,0.60284075,339.9355206,z,1,0.172517459,None,final_pushkar,1,2023-10-16_08h14.12.312,oct 9 class,2023.2.2,120.356919,2023-10-16 08h14.23.043823 +0530
-50,x,sequential,0,0,0,0,,,,,35,1,141,1,339.9442818,,,,,,,,,,,,,,339.9364066,0.602912292,340.7020475,x,1,0.140377958,None,final_pushkar,1,2023-10-16_08h14.12.312,oct 9 class,2023.2.2,120.356919,2023-10-16 08h14.23.043823 +0530
50,c,sequential,0,0,0,0,,,,,35,2,142,2,340.7184163,,,,,,,,,,,,,,340.7031717,0.615622875,341.4186368,c,1,0.098600834,None,final_pushkar,1,2023-10-16_08h14.12.312,oct 9 class,2023.2.2,120.356919,2023-10-16 08h14.23.043823 +0530
150,v,sequential,0,0,0,0,,,,,35,3,143,3,341.4350991,,,,,,,,,,,,,,341.4199337,0.608897167,342.0615186,v,1,0.025643541,None,final_pushkar,1,2023-10-16_08h14.12.312,oct 9 class,2023.2.2,120.356919,2023-10-16 08h14.23.043823 +0530
-150,z,sequential,0,0,0,0,,,,,36,0,144,0,342.0713415,,,,,,,,,,,,,,342.0626475,0.606175958,342.785781,z,1,0.107253084,None,final_pushkar,1,2023-10-16_08h14.12.312,oct 9 class,2023.2.2,120.356919,2023-10-16 08h14.23.043823 +0530
-50,x,sequential,0,0,0,0,,,,,36,1,145,1,342.7958488,,,,,,,,,,,,,,342.7868973,0.602426542,343.4976507,x,1,0.0968895,None,final_pushkar,1,2023-10-16_08h14.12.312,oct 9 class,2023.2.2,120.356919,2023-10-16 08h14.23.043823 +0530
50,c,sequential,0,0,0,0,,,,,36,2,146,2,343.5053722,,,,,,,,,,,,,,343.4988074,0.603435792,344.7287825,c,1,0.62596425,None,final_pushkar,1,2023-10-16_08h14.12.312,oct 9 class,2023.2.2,120.356919,2023-10-16 08h14.23.043823 +0530
150,v,sequential,0,0,0,0,,,,,36,3,147,3,344.7381704,,,,,,,,,,,,,,344.7296759,0.605868625,345.4526518,v,1,0.108420666,None,final_pushkar,1,2023-10-16_08h14.12.312,oct 9 class,2023.2.2,120.356919,2023-10-16 08h14.23.043823 +0530
-150,z,sequential,0,0,0,0,,,,,37,0,148,0,345.4625371,,,,,,,,,,,,,,345.4537981,0.602487167,346.2458116,z,1,0.188288542,None,final_pushkar,1,2023-10-16_08h14.12.312,oct 9 class,2023.2.2,120.356919,2023-10-16 08h14.23.043823 +0530
-50,x,sequential,0,0,0,0,,,,,37,1,149,1,346.254803,,,,,,,,,,,,,,346.2466972,0.605456833,347.0854331,x,1,0.231117375,None,final_pushkar,1,2023-10-16_08h14.12.312,oct 9 class,2023.2.2,120.356919,2023-10-16 08h14.23.043823 +0530
50,c,sequential,0,0,0,0,,,,,37,2,150,2,347.1018017,,,,,,,,,,,,,,347.0867422,0.615698209,347.8303736,c,1,0.117986167,None,final_pushkar,1,2023-10-16_08h14.12.312,oct 9 class,2023.2.2,120.356919,2023-10-16 08h14.23.043823 +0530
150,v,sequential,0,0,0,0,,,,,37,3,151,3,347.8386603,,,,,,,,,,,,,,347.8317718,0.605642542,348.5647651,v,1,0.115994125,None,final_pushkar,1,2023-10-16_08h14.12.312,oct 9 class,2023.2.2,120.356919,2023-10-16 08h14.23.043823 +0530
-150,z,sequential,0,0,0,0,,,,,38,0,152,0,348.5729394,,,,,,,,,,,,,,348.5660849,0.602983208,349.2974527,z,1,0.117044667,None,final_pushkar,1,2023-10-16_08h14.12.312,oct 9 class,2023.2.2,120.356919,2023-10-16 08h14.23.043823 +0530
-50,x,sequential,0,0,0,0,,,,,38,1,153,1,349.305536,,,,,,,,,,,,,,349.2986099,0.603610542,350.0118736,x,1,0.107506625,None,final_pushkar,1,2023-10-16_08h14.12.312,oct 9 class,2023.2.2,120.356919,2023-10-16 08h14.23.043823 +0530
50,c,sequential,0,0,0,0,,,,,38,2,154,2,350.0219019,,,,,,,,,,,,,,350.0129928,0.605707959,350.7186399,c,1,0.090025583,None,final_pushkar,1,2023-10-16_08h14.12.312,oct 9 class,2023.2.2,120.356919,2023-10-16 08h14.23.043823 +0530
150,v,sequential,0,0,0,0,,,,,38,3,155,3,350.7353163,,,,,,,,,,,,,,350.7197741,0.615926125,351.4354853,v,1,0.08092975,None,final_pushkar,1,2023-10-16_08h14.12.312,oct 9 class,2023.2.2,120.356919,2023-10-16 08h14.23.043823 +0530
-150,z,sequential,0,0,0,0,,,,,39,0,156,0,351.4520696,,,,,,,,,,,,,,351.4366108,0.609513083,352.4759028,z,1,0.42840525,None,final_pushkar,1,2023-10-16_08h14.12.312,oct 9 class,2023.2.2,120.356919,2023-10-16 08h14.23.043823 +0530
-50,x,sequential,0,0,0,0,,,,,39,1,157,1,352.4840052,,,,,,,,,,,,,,352.4767551,0.608409167,353.2959453,x,1,0.21030075,None,final_pushkar,1,2023-10-16_08h14.12.312,oct 9 class,2023.2.2,120.356919,2023-10-16 08h14.23.043823 +0530
50,c,sequential,0,0,0,0,,,,,39,2,158,2,353.3048626,,,,,,,,,,,,,,353.2968411,0.60542275,354.0862045,c,1,0.166841875,None,final_pushkar,1,2023-10-16_08h14.12.312,oct 9 class,2023.2.2,120.356919,2023-10-16 08h14.23.043823 +0530
150,v,sequential,0,0,0,0,,,,,39,3,159,3,354.0938458,,,,,,,,,,,,,,354.0872385,0.615153834,354.8285562,v,1,0.124897209,None,final_pushkar,1,2023-10-16_08h14.12.312,oct 9 class,2023.2.2,120.356919,2023-10-16 08h14.23.043823 +0530
-150,z,sequential,0,0,0,0,,,,,40,0,160,0,354.838693,,,,,,,,,,,,,,354.8296679,0.605835208,355.6787292,z,1,0.236609042,None,final_pushkar,1,2023-10-16_08h14.12.312,oct 9 class,2023.2.2,120.356919,2023-10-16 08h14.23.043823 +0530
-50,x,sequential,0,0,0,0,,,,,40,1,161,1,355.6879045,,,,,,,,,,,,,,355.6796223,0.606222792,356.4028195,x,1,0.110835584,None,final_pushkar,1,2023-10-16_08h14.12.312,oct 9 class,2023.2.2,120.356919,2023-10-16 08h14.23.043823 +0530
50,c,sequential,0,0,0,0,,,,,40,2,162,2,356.4128555,,,,,,,,,,,,,,356.4039485,0.602655709,357.0526708,v,0,0.042230375,None,final_pushkar,1,2023-10-16_08h14.12.312,oct 9 class,2023.2.2,120.356919,2023-10-16 08h14.23.043823 +0530
150,v,sequential,0,0,0,0,,,,,40,3,163,3,357.0632303,,,,,,,,,,,,,,357.0540246,0.615087333,357.7361205,c,0,0.055646875,None,final_pushkar,1,2023-10-16_08h14.12.312,oct 9 class,2023.2.2,120.356919,2023-10-16 08h14.23.043823 +0530
-150,z,sequential,0,0,0,0,,,,,41,0,164,0,357.7462786,,,,,,,,,,,,,,357.7372314,0.602985,358.60273,z,1,0.254444167,None,final_pushkar,1,2023-10-16_08h14.12.312,oct 9 class,2023.2.2,120.356919,2023-10-16 08h14.23.043823 +0530
-50,x,sequential,0,0,0,0,,,,,41,1,165,1,358.6122881,,,,,,,,,,,,,,358.6037368,0.602828958,359.3640371,x,1,0.146390333,None,final_pushkar,1,2023-10-16_08h14.12.312,oct 9 class,2023.2.2,120.356919,2023-10-16 08h14.23.043823 +0530
50,c,sequential,0,0,0,0,,,,,41,2,166,2,359.3720537,,,,,,,,,,,,,,359.365088,0.604161708,360.0978626,c,1,0.117222667,None,final_pushkar,1,2023-10-16_08h14.12.312,oct 9 class,2023.2.2,120.356919,2023-10-16 08h14.23.043823 +0530
150,v,sequential,0,0,0,0,,,,,41,3,167,3,360.1060148,,,,,,,,,,,,,,360.0990105,0.603068916,360.7959849,v,1,0.092066666,None,final_pushkar,1,2023-10-16_08h14.12.312,oct 9 class,2023.2.2,120.356919,2023-10-16 08h14.23.043823 +0530
-150,z,sequential,0,0,0,0,,,,,42,0,168,0,360.8059188,,,,,,,,,,,,,,360.7971001,0.60520375,361.5775006,z,1,0.169921542,None,final_pushkar,1,2023-10-16_08h14.12.312,oct 9 class,2023.2.2,120.356919,2023-10-16 08h14.23.043823 +0530
-50,x,sequential,0,0,0,0,,,,,42,1,169,1,361.6017142,,,,,,,,,,,,,,361.5783985,0.607533708,362.303401,x,1,0.116813959,None,final_pushkar,1,2023-10-16_08h14.12.312,oct 9 class,2023.2.2,120.356919,2023-10-16 08h14.23.043823 +0530
50,c,sequential,0,0,0,0,,,,,42,2,170,2,362.3134017,,,,,,,,,,,,,,362.3045217,0.614749209,363.0453431,c,1,0.121788416,None,final_pushkar,1,2023-10-16_08h14.12.312,oct 9 class,2023.2.2,120.356919,2023-10-16 08h14.23.043823 +0530
150,v,sequential,0,0,0,0,,,,,42,3,171,3,363.0558401,,,,,,,,,,,,,,363.0464905,0.608734375,363.7719783,v,1,0.108600625,None,final_pushkar,1,2023-10-16_08h14.12.312,oct 9 class,2023.2.2,120.356919,2023-10-16 08h14.23.043823 +0530
-150,z,sequential,0,0,0,0,,,,,43,0,172,0,363.7853209,,,,,,,,,,,,,,363.7729945,0.599816,364.5027566,z,1,0.125329083,None,final_pushkar,1,2023-10-16_08h14.12.312,oct 9 class,2023.2.2,120.356919,2023-10-16 08h14.23.043823 +0530
-50,x,sequential,0,0,0,0,,,,,43,1,173,1,364.5127944,,,,,,,,,,,,,,364.5038948,0.602704166,365.2361066,x,1,0.119823375,None,final_pushkar,1,2023-10-16_08h14.12.312,oct 9 class,2023.2.2,120.356919,2023-10-16 08h14.23.043823 +0530
50,c,sequential,0,0,0,0,,,,,43,2,174,2,365.2454478,,,,,,,,,,,,,,365.2370815,0.615717708,365.9059105,c,1,0.04488375,None,final_pushkar,1,2023-10-16_08h14.12.312,oct 9 class,2023.2.2,120.356919,2023-10-16 08h14.23.043823 +0530
150,v,sequential,0,0,0,0,,,,,43,3,175,3,365.9186442,,,,,,,,,,,,,,365.9070494,0.61244225,366.6194404,v,1,0.086313958,None,final_pushkar,1,2023-10-16_08h14.12.312,oct 9 class,2023.2.2,120.356919,2023-10-16 08h14.23.043823 +0530
-150,z,sequential,0,0,0,0,,,,,44,0,176,0,366.6270478,,,,,,,,,,,,,,366.6204793,0.615083709,367.3529876,z,1,0.114577333,None,final_pushkar,1,2023-10-16_08h14.12.312,oct 9 class,2023.2.2,120.356919,2023-10-16 08h14.23.043823 +0530
-50,x,sequential,0,0,0,0,,,,,44,1,177,1,367.3627554,,,,,,,,,,,,,,367.354089,0.602937459,368.0692291,x,1,0.106186417,None,final_pushkar,1,2023-10-16_08h14.12.312,oct 9 class,2023.2.2,120.356919,2023-10-16 08h14.23.043823 +0530
50,c,sequential,0,0,0,0,,,,,44,2,178,2,368.085807,,,,,,,,,,,,,,368.0704158,0.615641709,368.7739354,c,1,0.076429292,None,final_pushkar,1,2023-10-16_08h14.12.312,oct 9 class,2023.2.2,120.356919,2023-10-16 08h14.23.043823 +0530
150,v,sequential,0,0,0,0,,,,,44,3,179,3,368.7853555,,,,,,,,,,,,,,368.7749685,0.611228208,369.4734695,v,1,0.076460875,None,final_pushkar,1,2023-10-16_08h14.12.312,oct 9 class,2023.2.2,120.356919,2023-10-16 08h14.23.043823 +0530
-150,z,sequential,0,0,0,0,,,,,45,0,180,0,369.4856495,,,,,,,,,,,,,,369.4744799,0.611423125,370.1918911,z,1,0.093660333,None,final_pushkar,1,2023-10-16_08h14.12.312,oct 9 class,2023.2.2,120.356919,2023-10-16 08h14.23.043823 +0530
-50,x,sequential,0,0,0,0,,,,,45,1,181,1,370.2013481,,,,,,,,,,,,,,370.1930604,0.609655791,370.931369,x,1,0.117591458,None,final_pushkar,1,2023-10-16_08h14.12.312,oct 9 class,2023.2.2,120.356919,2023-10-16 08h14.23.043823 +0530
50,c,sequential,0,0,0,0,,,,,45,2,182,2,370.9396378,,,,,,,,,,,,,,370.9325201,0.603715042,371.6124714,c,1,0.070226459,None,final_pushkar,1,2023-10-16_08h14.12.312,oct 9 class,2023.2.2,120.356919,2023-10-16 08h14.23.043823 +0530
150,v,sequential,0,0,0,0,,,,,45,3,183,3,371.6229166,,,,,,,,,,,,,,371.6136092,0.605925209,372.3567066,v,1,0.135445917,None,final_pushkar,1,2023-10-16_08h14.12.312,oct 9 class,2023.2.2,120.356919,2023-10-16 08h14.23.043823 +0530
-150,z,sequential,0,0,0,0,,,,,46,0,184,0,372.3686109,,,,,,,,,,,,,,372.3578261,0.611164375,372.9905135,z,1,0.018706709,None,final_pushkar,1,2023-10-16_08h14.12.312,oct 9 class,2023.2.2,120.356919,2023-10-16 08h14.23.043823 +0530
-50,x,sequential,0,0,0,0,,,,,46,1,185,1,373.0020676,,,,,,,,,,,,,,372.9917663,0.610969042,373.75241,x,1,0.14633375,None,final_pushkar,1,2023-10-16_08h14.12.312,oct 9 class,2023.2.2,120.356919,2023-10-16 08h14.23.043823 +0530
50,c,sequential,0,0,0,0,,,,,46,2,186,2,373.769132,,,,,,,,,,,,,,373.7535361,0.603293792,374.4200377,c,1,0.055369542,None,final_pushkar,1,2023-10-16_08h14.12.312,oct 9 class,2023.2.2,120.356919,2023-10-16 08h14.23.043823 +0530
150,v,sequential,0,0,0,0,,,,,46,3,187,3,374.4301564,,,,,,,,,,,,,,374.4211656,0.602220416,375.112746,v,1,0.085995,None,final_pushkar,1,2023-10-16_08h14.12.312,oct 9 class,2023.2.2,120.356919,2023-10-16 08h14.23.043823 +0530
-150,z,sequential,0,0,0,0,,,,,47,0,188,0,375.1228062,,,,,,,,,,,,,,375.1139039,0.599446333,375.812049,z,1,0.09440475,None,final_pushkar,1,2023-10-16_08h14.12.312,oct 9 class,2023.2.2,120.356919,2023-10-16 08h14.23.043823 +0530
-50,x,sequential,0,0,0,0,,,,,47,1,189,1,375.8217182,,,,,,,,,,,,,,375.8131163,0.606238083,376.5366612,x,1,0.109612875,None,final_pushkar,1,2023-10-16_08h14.12.312,oct 9 class,2023.2.2,120.356919,2023-10-16 08h14.23.043823 +0530
50,c,sequential,0,0,0,0,,,,,47,2,190,2,376.5468959,,,,,,,,,,,,,,376.5379573,0.615131625,377.2526055,c,1,0.0963455,None,final_pushkar,1,2023-10-16_08h14.12.312,oct 9 class,2023.2.2,120.356919,2023-10-16 08h14.23.043823 +0530
150,v,sequential,0,0,0,0,,,,,47,3,191,3,377.2692282,,,,,,,,,,,,,,377.2537416,0.599300875,378.0028425,v,1,0.129937667,None,final_pushkar,1,2023-10-16_08h14.12.312,oct 9 class,2023.2.2,120.356919,2023-10-16 08h14.23.043823 +0530
-150,z,sequential,0,0,0,0,,,,,48,0,192,0,378.0192862,,,,,,,,,,,,,,378.0039778,0.615748208,378.7462712,z,1,0.121741083,None,final_pushkar,1,2023-10-16_08h14.12.312,oct 9 class,2023.2.2,120.356919,2023-10-16 08h14.23.043823 +0530
-50,x,sequential,0,0,0,0,,,,,48,1,193,1,378.7567639,,,,,,,,,,,,,,378.7474192,0.605083417,379.4529938,x,1,0.099114167,None,final_pushkar,1,2023-10-16_08h14.12.312,oct 9 class,2023.2.2,120.356919,2023-10-16 08h14.23.043823 +0530
50,c,sequential,0,0,0,0,,,,,48,2,194,2,379.4693312,,,,,,,,,,,,,,379.4542629,0.615559084,380.1698785,c,1,0.09960125,None,final_pushkar,1,2023-10-16_08h14.12.312,oct 9 class,2023.2.2,120.356919,2023-10-16 08h14.23.043823 +0530
150,v,sequential,0,0,0,0,,,,,48,3,195,3,380.1860876,,,,,,,,,,,,,,380.1710038,0.6030095,380.9363037,v,1,0.149182833,None,final_pushkar,1,2023-10-16_08h14.12.312,oct 9 class,2023.2.2,120.356919,2023-10-16 08h14.23.043823 +0530
-150,z,sequential,0,0,0,0,,,,,49,0,196,0,380.9528297,,,,,,,,,,,,,,380.9374435,0.603062583,381.7029908,x,0,0.157702791,None,final_pushkar,1,2023-10-16_08h14.12.312,oct 9 class,2023.2.2,120.356919,2023-10-16 08h14.23.043823 +0530
-50,x,sequential,0,0,0,0,,,,,49,1,197,1,381.7193657,,,,,,,,,,,,,,381.7041435,0.615656833,382.6031866,x,1,0.280507209,None,final_pushkar,1,2023-10-16_08h14.12.312,oct 9 class,2023.2.2,120.356919,2023-10-16 08h14.23.043823 +0530
50,c,sequential,0,0,0,0,,,,,49,2,198,2,382.6193689,,,,,,,,,,,,,,382.6044266,0.615443416,383.2728903,c,1,0.050145375,None,final_pushkar,1,2023-10-16_08h14.12.312,oct 9 class,2023.2.2,120.356919,2023-10-16 08h14.23.043823 +0530
150,v,sequential,0,0,0,0,,,,,49,3,199,3,383.2858124,,,,,,,,,,,,,,383.2740243,0.612480833,383.9957519,v,1,0.105602833,None,final_pushkar,1,2023-10-16_08h14.12.312,oct 9 class,2023.2.2,120.356919,2023-10-16 08h14.23.043823 +0530