delay,frequency,condition,trials.thisRepN,trials.thisTrialN,trials.thisN,trials.thisIndex,thisRow.t,notes,instructions.started,instructions.stopped,key_resp.keys,key_resp.rt,key_resp.duration,Cue.started,response.started,Cue.stopped,response.keys,response.rt,response.duration,beep.started,sound_1.started,sound_1.stopped,beep.stopped,report_timing.started,report_timing.stopped,slider.response,slider.rt,participant,session,date,expName,psychopyVersion,frameRate,expStart,
,,,,,,,,,0.0452039159135893,6.53927599999588,space,6.420356458052993,0.07256695791147649,,,,,,,,,,,,,,,KRUTI_T,001,2023-10-31_15h40.37.820,experiment,2023.2.2,119.79305704779313,2023-10-31 15h40.49.046406 +0530,
0.7,400,expected,0,0,0,8,6.658828957937658,,,,,,,6.560553290997632,7.044506874983199,8.622078249929473,space,1.5684073750162497,None,8.622888291021809,9.32636222500587,9.662721375003457,9.624780790996738,9.624833540990949,12.713923958013766,46.66666666666669,3.067122625070624,KRUTI_T,001,2023-10-31_15h40.37.820,experiment,2023.2.2,119.79305704779313,2023-10-31 15h40.49.046406 +0530,
0.4,400,expected,0,1,1,7,12.7198233329691,,,,,,,12.714413875015453,13.219111250014976,14.586490999907255,space,1.3666762079810724,None,14.586752541013993,14.987802765925881,15.303487750003114,15.284871749929152,15.28491079097148,17.24820558296051,90.00000000000003,1.9290991669986397,KRUTI_T,001,2023-10-31_15h40.37.820,experiment,2023.2.2,119.79305704779313,2023-10-31 15h40.49.046406 +0530,
0.7,400,expected,0,2,2,11,17.26200024993159,,,,,,,17.24858333298471,17.75252116599586,20.054301082971506,space,2.2964545409195125,None,20.054550540982746,20.75411134994356,21.07123270793818,21.051999207935296,21.05204166600015,23.10138324997388,273.3333333333333,2.03071183396969,KRUTI_T,001,2023-10-31_15h40.37.820,experiment,2023.2.2,119.79305704779313,2023-10-31 15h40.49.046406 +0530,
0.4,400,expected,0,3,3,3,23.11194666591473,,,,,,,23.101667165989056,23.602623124956153,25.44741708296351,space,1.8354486249154434,None,25.448087207973003,25.85398914095713,26.16955870797392,26.15166487498209,26.151719790999778,28.03341783292126,371.1111111111111,1.863966542063281,KRUTI_T,001,2023-10-31_15h40.37.820,experiment,2023.2.2,119.79305704779313,2023-10-31 15h40.49.046406 +0530,
0.4,400,expected,0,4,4,10,28.045261332998052,,,,,,,28.033684249967337,28.53528391593136,29.046391375013627,space,0.5000034580007195,None,29.046691332943738,29.454562890937087,29.770940832910128,29.75128450000193,29.751340791000985,32.27117916592397,433.33333333333337,2.5004859160399064,KRUTI_T,001,2023-10-31_15h40.37.820,experiment,2023.2.2,119.79305704779313,2023-10-31 15h40.49.046406 +0530,
0.1,400,expected,0,5,5,6,32.27800937497523,,,,,,,32.27144566597417,32.770089583005756,34.43044858297799,space,1.6528452499769628,None,34.43110704096034,34.53758172494126,34.853266624966636,34.83470754092559,34.83473958296236,36.15788662491832,580.0,1.3055799580179155,KRUTI_T,001,2023-10-31_15h40.37.820,experiment,2023.2.2,119.79305704779313,2023-10-31 15h40.49.046406 +0530,
0.7,400,expected,0,6,6,5,36.17827858298551,,,,,,,36.158146457979456,36.66209433297627,37.25661083299201,space,0.5850387079408392,None,37.256863499991596,37.960911015991584,38.27686270792037,38.25864308292512,38.258687415975146,39.60360737494193,538.8888888888889,1.3275955419521779,KRUTI_T,001,2023-10-31_15h40.37.820,experiment,2023.2.2,119.79305704779313,2023-10-31 15h40.49.046406 +0530,
0.1,1000,unexpected,0,7,7,0,39.61171008297242,,,,,,,39.60388654097915,40.10507087490987,40.60347845801152,space,0.49671012500766665,None,40.60372158291284,40.704300766007506,41.020455082994886,41.002029249910265,41.002071624970995,45.023373708012514,350.0,4.003452583099715,KRUTI_T,001,2023-10-31_15h40.37.820,experiment,2023.2.2,119.79305704779313,2023-10-31 15h40.49.046406 +0530,
0.1,400,expected,0,8,8,9,45.02960845793132,,,,,,,45.02366937499028,45.52925499994308,47.01358408294618,space,1.480734874960035,None,47.014264790923335,47.12107022491982,47.43828370794654,47.41895666602068,47.41899575002026,49.57358170801308,188.88888888888889,2.136150583042763,KRUTI_T,001,2023-10-31_15h40.37.820,experiment,2023.2.2,119.79305704779313,2023-10-31 15h40.49.046406 +0530,
0.7,1000,unexpected,0,9,9,4,49.57968374993652,,,,,,,49.5738966249628,50.079411040991545,50.7540141249774,space,0.6721243750071153,None,50.75424395792652,51.45500209998572,51.77060737495776,51.752359958016314,51.7523983749561,53.61999783292413,684.4444444444445,1.850186208030209,KRUTI_T,001,2023-10-31_15h40.37.820,experiment,2023.2.2,119.79305704779313,2023-10-31 15h40.49.046406 +0530,
0.1,400,expected,0,10,10,1,53.62867891602218,,,,,,,53.62029208301101,54.11926441593096,56.12090216600336,space,1.9947711669374257,None,56.121121499920264,56.220848015986846,56.53739991597831,56.5186083749868,56.5186584580224,58.15141087491065,590.0,1.6139034169027582,KRUTI_T,001,2023-10-31_15h40.37.820,experiment,2023.2.2,119.79305704779313,2023-10-31 15h40.49.046406 +0530,
0.4,1000,unexpected,0,11,11,2,58.1623955409741,,,,,,,58.15168295800686,58.65652737498749,59.63044020801317,space,0.9652775840368122,None,59.63112729100976,60.037433265952856,60.35474429093301,60.33589591598138,60.335927375010215,61.81466945796274,813.3333333333334,1.457063875044696,KRUTI_T,001,2023-10-31_15h40.37.820,experiment,2023.2.2,119.79305704779313,2023-10-31 15h40.49.046406 +0530,
0.4,400,expected,1,0,12,3,61.82028724998236,,,,,,,61.81493724999018,62.318148375023156,64.94939783297013,space,2.6284176249755546,None,64.95019858295564,65.35514593300177,65.67175862495787,65.6523053329438,65.65234966599382,67.74109608295839,697.7777777777778,2.071050666971132,KRUTI_T,001,2023-10-31_15h40.37.820,experiment,2023.2.2,119.79305704779313,2023-10-31 15h40.49.046406 +0530,
0.1,400,expected,1,1,13,6,67.76214200002141,,,,,,,67.74142508301884,68.24611620791256,71.40413358295336,space,3.157159334048629,None,71.40439204091672,71.5047697660164,71.82304287492298,71.80254654097371,71.80258699995466,73.40705579100177,677.7777777777778,1.5845447080209851,KRUTI_T,001,2023-10-31_15h40.37.820,experiment,2023.2.2,119.79305704779313,2023-10-31 15h40.49.046406 +0530,
0.1,400,expected,1,2,14,9,73.41357624996454,,,,,,,73.40745283290744,73.91308679094072,74.69837720796932,space,0.7832489580614492,None,74.69910837500356,74.8048201829777,75.12027420802042,75.10242758295499,75.10247829090804,76.20379724993836,304.4444444444444,1.0840520000783727,KRUTI_T,001,2023-10-31_15h40.37.820,experiment,2023.2.2,119.79305704779313,2023-10-31 15h40.49.046406 +0530,
0.4,400,expected,1,3,15,10,76.21257191593759,,,,,,,76.20406216592528,76.7030387079576,79.9546406660229,space,3.238660833099857,None,79.95558304095175,80.35526797502534,80.67264487501234,80.6520978329936,80.65213149995543,81.80849508300889,560.0,1.1387103339657187,KRUTI_T,001,2023-10-31_15h40.37.820,experiment,2023.2.2,119.79305704779313,2023-10-31 15h40.49.046406 +0530,
0.1,400,expected,1,4,16,1,81.8287427079631,,,,,,,81.80887270800304,82.31287625001278,88.16601966600865,space,5.850955208064988,None,88.16666033293586,88.27122818295611,88.58495516597759,88.568478415953,88.5684897910105,89.68661654100288,560.0,1.1023167499806732,KRUTI_T,001,2023-10-31_15h40.37.820,experiment,2023.2.2,119.79305704779313,2023-10-31 15h40.49.046406 +0530,
0.7,1000,unexpected,1,5,17,4,89.6960941660218,,,,,,,89.6869097079616,90.18863466591574,94.65428008302115,space,4.46230250003282,None,94.65450512501411,95.3550913499319,95.67087708297186,95.65246520796791,95.65250270802062,98.12460849992931,815.5555555555555,2.4545279169688,KRUTI_T,001,2023-10-31_15h40.37.820,experiment,2023.2.2,119.79305704779313,2023-10-31 15h40.49.046406 +0530,
0.7,400,expected,1,6,18,5,98.13087383296806,,,,,,,98.12493441591505,98.62963699991815,103.08072266599629,space,4.446169583010487,None,103.08092987490818,103.78873505793744,104.10547995800152,104.08614379097708,104.08619099995121,108.85137820790987,546.6666666666666,4.7463399580447,KRUTI_T,001,2023-10-31_15h40.37.820,experiment,2023.2.2,119.79305704779313,2023-10-31 15h40.49.046406 +0530,
0.4,1000,unexpected,1,7,19,2,108.8629112909548,,,,,,,108.85166833293624,109.35242437501438,117.57056729099713,space,8.214078541030176,None,117.57089066598564,117.97192759999307,118.28917529096361,118.26954524999019,118.26958574994933,120.33818612492178,292.22222222222223,2.0496317910728976,KRUTI_T,001,2023-10-31_15h40.37.820,experiment,2023.2.2,119.79305704779313,2023-10-31 15h40.49.046406 +0530,
0.7,400,expected,1,8,20,8,120.34576466598082,,,,,,,120.33845529099926,120.83532245794777,121.8651800409425,space,1.0281326660187915,None,121.8659016250167,122.57200343302684,122.88877545797732,122.86967112496495,122.86972245795187,125.63578487501945,473.3333333333333,2.7473931659478694,KRUTI_T,001,2023-10-31_15h40.37.820,experiment,2023.2.2,119.79305704779313,2023-10-31 15h40.49.046406 +0530,
0.7,400,expected,1,9,21,11,125.64650099992286,,,,,,,125.63607437501196,126.13660562492441,129.17115387495141,space,3.0284475000808015,None,129.17136962502263,129.87231989101275,130.18821787496563,130.16952854092233,130.16956779093016,132.38264283293393,552.2222222222222,2.193973416928202,KRUTI_T,001,2023-10-31_15h40.37.820,experiment,2023.2.2,119.79305704779313,2023-10-31 15h40.49.046406 +0530,
0.4,400,expected,1,10,22,7,132.38854337495286,,,,,,,132.38295654091053,132.8871420000214,133.5820005829446,space,0.6931092920713127,None,133.58273683302104,133.9889287660015,134.30533595802262,134.28653995797504,134.28657570795622,138.30525024991948,558.8888888888889,3.9994558750186116,KRUTI_T,001,2023-10-31_15h40.37.820,experiment,2023.2.2,119.79305704779313,2023-10-31 15h40.49.046406 +0530,
0.1,1000,unexpected,1,11,23,0,138.31311945791822,,,,,,,138.30560791597236,138.80473837500904,139.81388766597956,space,1.0035430419957265,None,139.81410474993754,139.92237376597478,140.23895349993836,140.21978016593494,140.21982870798092,143.72182137495838,790.0,3.4836393750738353,KRUTI_T,001,2023-10-31_15h40.37.820,experiment,2023.2.2,119.79305704779313,2023-10-31 15h40.49.046406 +0530,
0.1,400,expected,2,0,24,9,143.72965645801742,,,,,,,143.7221019999124,144.23044962494168,145.2816129999701,space,1.0412747499067336,None,145.2822595409816,145.38871493296466,145.70518179098144,145.6863275829237,145.68637433298863,147.2265644579893,308.88888888888886,1.5219921249663457,KRUTI_T,001,2023-10-31_15h40.37.820,experiment,2023.2.2,119.79305704779313,2023-10-31 15h40.49.046406 +0530,
0.1,400,expected,2,1,25,6,147.23276899999473,,,,,,,147.226826665923,147.73002229095437,148.4142973329872,space,0.6809552080230787,None,148.41455354099162,148.52169014095563,148.83841187495273,148.819852540968,148.8198990409728,150.7892499580048,233.33333333333334,1.9513525830116123,KRUTI_T,001,2023-10-31_15h40.37.820,experiment,2023.2.2,119.79305704779313,2023-10-31 15h40.49.046406 +0530,
0.7,400,expected,2,2,26,8,150.7963199999649,,,,,,,150.78952012502123,151.28905512497295,151.8812292079674,space,0.5853811249835417,None,151.8814424580196,152.5890470160055,152.90566558297724,152.88662220793776,152.88666012499016,154.22156162501778,200.0,1.3166597089730203,KRUTI_T,001,2023-10-31_15h40.37.820,experiment,2023.2.2,119.79305704779313,2023-10-31 15h40.49.046406 +0530,
0.7,400,expected,2,3,27,5,154.22976391599514,,,,,,,154.22183829091955,154.72193499992136,155.23802812502254,space,0.5135648340219632,None,155.23824666591827,155.93909084995977,156.2549597909674,156.23640133300796,156.2364489159081,159.0229480409762,191.11111111111111,2.7687730420148,KRUTI_T,001,2023-10-31_15h40.37.820,experiment,2023.2.2,119.79305704779313,2023-10-31 15h40.49.046406 +0530,
0.1,1000,unexpected,2,4,28,0,159.02926733298227,,,,,,,159.02326037501916,159.53083616599906,161.52124945796095,space,1.987810083082877,None,161.52151183295064,161.62224164094079,161.94107391592115,161.92302716593258,161.92307108291425,165.11851662502158,458.8888888888889,3.1768501250771806,KRUTI_T,001,2023-10-31_15h40.37.820,experiment,2023.2.2,119.79305704779313,2023-10-31 15h40.49.046406 +0530,
0.1,400,expected,2,5,29,1,165.12960979097988,,,,,,,165.1188139159931,165.62022745795548,166.0644023329951,space,0.4378787089372054,None,166.064654415939,166.17241885002005,166.48697762493975,166.46928045793902,166.46933054097462,167.96939849993214,458.8888888888889,1.4826886670198292,KRUTI_T,001,2023-10-31_15h40.37.820,experiment,2023.2.2,119.79305704779313,2023-10-31 15h40.49.046406 +0530,
0.4,400,expected,2,6,30,7,167.97999108291697,,,,,,,167.9696625409415,168.47203941596672,169.2322214159649,space,0.752292542019859,None,169.23297229094896,169.63921339100926,169.95626266591717,169.93677754094824,169.93682762491517,172.17753220791928,672.2222222222223,2.221409915946424,KRUTI_T,001,2023-10-31_15h40.37.820,experiment,2023.2.2,119.79305704779313,2023-10-31 15h40.49.046406 +0530,
0.4,400,expected,2,7,31,3,172.18358099996112,,,,,,,172.17779929097742,172.68019483296666,173.68174529098906,space,0.996193291968666,None,173.682578500011,174.0892022249871,174.40445595793426,174.38648466591258,174.38653054099996,176.16415958292782,663.3333333333334,1.7594559580320492,KRUTI_T,001,2023-10-31_15h40.37.820,experiment,2023.2.2,119.79305704779313,2023-10-31 15h40.49.046406 +0530,
0.4,400,expected,2,8,32,10,176.16980287490878,,,,,,,176.16442608297803,176.67124404094648,177.4718574580038,space,0.799401875003241,None,177.47210745792836,177.87259330799571,178.18814679095522,178.16995633300394,178.17000762501266,179.61835941590834,713.3333333333334,1.4300967080052942,KRUTI_T,001,2023-10-31_15h40.37.820,experiment,2023.2.2,119.79305704779313,2023-10-31 15h40.49.046406 +0530,
0.7,1000,unexpected,2,9,33,4,179.63008495792747,,,,,,,179.6186182909878,180.11885833297856,184.9891690829536,space,4.8677212910261005,None,184.9894225000171,185.68926239096328,186.00524291594047,185.98683320800774,185.9868750409223,188.25396329094656,716.6666666666666,2.2492823329521343,KRUTI_T,001,2023-10-31_15h40.37.820,experiment,2023.2.2,119.79305704779313,2023-10-31 15h40.49.046406 +0530,
0.4,1000,unexpected,2,10,34,2,188.2635843749158,,,,,,,188.25422783300746,188.75574724993203,190.12064216600265,space,1.3591215839842334,None,190.12086654093582,190.52136284998852,190.83843749994412,190.81999195797835,190.8200421659276,193.31309829093516,713.3333333333334,2.4754910840420052,KRUTI_T,001,2023-10-31_15h40.37.820,experiment,2023.2.2,119.79305704779313,2023-10-31 15h40.49.046406 +0530,
0.7,400,expected,2,11,35,11,193.31891375000123,,,,,,,193.31336904095951,193.81424862495624,198.03785362502094,space,4.219241583021358,None,198.0381198329851,198.73922280793778,199.05652999994345,199.0359765830217,199.0360247499775,201.7190172499977,675.5555555555555,2.664089458063245,KRUTI_T,001,2023-10-31_15h40.37.820,experiment,2023.2.2,119.79305704779313,2023-10-31 15h40.49.046406 +0530,
0.4,1000,unexpected,3,0,36,2,201.73019641591236,,,,,,,201.7193809580058,202.21960754098836,203.37189937499352,space,1.1516263750381768,None,203.3721070829779,203.77233039099957,204.08783699991181,204.0697859999491,204.06982500001322,205.65904145792592,302.22222222222223,1.571679792017676,KRUTI_T,001,2023-10-31_15h40.37.820,experiment,2023.2.2,119.79305704779313,2023-10-31 15h40.49.046406 +0530,
0.1,400,expected,3,1,37,9,205.67963683290873,,,,,,,205.65931783302221,206.16387199994642,212.0054175410187,space,5.834735249984078,None,212.005653582979,212.10621601600434,212.42256637499668,212.4034719999181,212.40351404098328,213.9032142079668,471.1111111111111,1.4804718750528991,KRUTI_T,001,2023-10-31_15h40.37.820,experiment,2023.2.2,119.79305704779313,2023-10-31 15h40.49.046406 +0530,
0.4,400,expected,3,2,38,3,213.91375499998685,,,,,,,213.9034790409496,214.40454545791727,215.15937183296774,space,0.7440827080281451,None,215.15961058298126,215.56275822502795,215.87877562490758,215.86011162493378,215.86015999992378,217.920268290909,427.7777777777778,2.041838583070785,KRUTI_T,001,2023-10-31_15h40.37.820,experiment,2023.2.2,119.79305704779313,2023-10-31 15h40.49.046406 +0530,
0.7,400,expected,3,3,39,5,217.9297932909103,,,,,,,217.92052983294707,218.419626582996,218.88205066591036,space,0.4573613749817014,None,218.88272179092746,219.58928534995067,219.90562095795758,219.887037041015,219.8870866659563,222.21964874991681,671.1111111111111,2.3145332909189165,KRUTI_T,001,2023-10-31_15h40.37.820,experiment,2023.2.2,119.79305704779313,2023-10-31 15h40.49.046406 +0530,
0.1,1000,unexpected,3,4,40,0,222.23032066598535,,,,,,,222.21996104100253,222.7207322079921,223.29927933297586,space,0.5725270840339363,None,223.29991191602312,223.4058317659772,223.72267866600305,223.70343324996065,223.70348408294376,225.15321162494365,716.6666666666666,1.4310797499492764,KRUTI_T,001,2023-10-31_15h40.37.820,experiment,2023.2.2,119.79305704779313,2023-10-31 15h40.49.046406 +0530,
0.4,400,expected,3,5,41,10,225.163609082927,,,,,,,225.1534768330166,225.6556122909533,232.0648989159381,space,6.401491792057641,None,232.0655726249097,232.47238105792786,232.78863962495234,232.77012779098004,232.77017529099248,234.56583779095672,695.5555555555555,1.7748907919740304,KRUTI_T,001,2023-10-31_15h40.37.820,experiment,2023.2.2,119.79305704779313,2023-10-31 15h40.49.046406 +0530,
0.1,400,expected,3,6,42,6,234.57186087500304,,,,,,,234.56610204093158,235.06985008297488,239.01510362501722,space,3.9377462080447003,None,239.01575791591313,239.12266980799615,239.4388575409539,239.42054816591553,239.42058729100972,240.6478815409355,664.4444444444443,1.209921957924962,KRUTI_T,001,2023-10-31_15h40.37.820,experiment,2023.2.2,119.79305704779313,2023-10-31 15h40.49.046406 +0530,
0.7,1000,unexpected,3,7,43,4,240.6538867909694,,,,,,,240.64814891596325,241.1529512499692,242.11433312494773,space,0.9523343750042841,None,242.1145782909589,242.82271951601143,243.13866966601927,243.11962420796044,243.11966195795685,246.15448441600893,781.1111111111111,3.016153167001903,KRUTI_T,001,2023-10-31_15h40.37.820,experiment,2023.2.2,119.79305704779313,2023-10-31 15h40.49.046406 +0530,
0.7,400,expected,3,8,44,8,246.163705832907,,,,,,,246.15478129091207,246.65410283301026,247.58968729095068,space,0.9338154169963673,None,247.58990174997598,248.2894594749785,248.60558858292643,248.58710670797154,248.58714616601355,250.18674224999268,702.2222222222222,1.5817493329523131,KRUTI_T,001,2023-10-31_15h40.37.820,experiment,2023.2.2,119.79305704779313,2023-10-31 15h40.49.046406 +0530,
0.7,400,expected,3,9,45,11,250.19707808294334,,,,,,,250.18701654102188,250.6871237079613,251.2049107910134,space,0.5154184169368818,None,251.20515454094857,251.90609947500053,252.22251958295237,252.20343479095027,252.20346841600258,254.28163354098797,206.66666666666666,2.0592854589922354,KRUTI_T,001,2023-10-31_15h40.37.820,experiment,2023.2.2,119.79305704779313,2023-10-31 15h40.49.046406 +0530,
0.4,400,expected,3,10,46,7,254.28720437490847,,,,,,,254.28190045792144,254.78824883291963,255.42158620792907,space,0.6266796250129119,None,255.42180083296262,255.8224398909486,256.13914679095615,256.11963145795744,256.1196708329953,257.6360595410224,222.2222222222222,1.497567208018154,KRUTI_T,001,2023-10-31_15h40.37.820,experiment,2023.2.2,119.79305704779313,2023-10-31 15h40.49.046406 +0530,
0.1,400,expected,3,11,47,1,257.6469945409335,,,,,,,257.63632112497,258.1371204999741,259.32137799996417,space,1.178880791994743,None,259.32173858291935,259.4224321409245,259.73901437490713,259.7198283330072,259.7198615409434,261.0658880409319,206.66666666666666,1.323753958917223,KRUTI_T,001,2023-10-31_15h40.37.820,experiment,2023.2.2,119.79305704779313,2023-10-31 15h40.49.046406 +0530,
0.1,400,expected,4,0,48,9,261.0714966659434,,,,,,,261.06614999996964,261.56508279091213,263.4986400830094,space,1.925928125041537,None,263.4993423749693,263.60575851601317,263.9257563329302,263.9067844999954,263.90681795799173,265.3990363749908,366.6666666666667,1.4703979580663145,KRUTI_T,001,2023-10-31_15h40.37.820,experiment,2023.2.2,119.79305704779313,2023-10-31 15h40.49.046406 +0530,
0.1,400,expected,4,1,49,6,265.40474908298347,,,,,,,265.3992992909625,265.9035217500059,269.0878302080091,space,3.17823454097379,None,269.0880499579944,269.1894825159223,269.5056330829393,269.48695054091513,269.4869966659462,270.96459341596346,692.2222222222222,1.4595129580702633,KRUTI_T,001,2023-10-31_15h40.37.820,experiment,2023.2.2,119.79305704779313,2023-10-31 15h40.49.046406 +0530,
0.7,400,expected,4,2,50,11,270.9702225829242,,,,,,,270.96485449990723,271.47189579100814,274.8488840829814,space,3.3716642500367016,None,274.8495794159826,275.55571101595416,275.872326624929,275.8531744159991,275.85320070793387,277.9658624159638,667.7777777777778,2.0912458329694346,KRUTI_T,001,2023-10-31_15h40.37.820,experiment,2023.2.2,119.79305704779313,2023-10-31 15h40.49.046406 +0530,
0.4,400,expected,4,3,51,7,277.9715238750214,,,,,,,277.966124999919,278.47258574992884,278.8727530000033,space,0.3966999580152333,None,278.87299166596495,279.2730051829829,279.5889467499219,279.57020841597114,279.5702561249491,281.3203606249299,725.5555555555555,1.7321901250397786,KRUTI_T,001,2023-10-31_15h40.37.820,experiment,2023.2.2,119.79305704779313,2023-10-31 15h40.49.046406 +0530,
0.1,400,expected,4,4,52,1,281.3302677909378,,,,,,,281.32062508293893,281.8205730409827,282.39952974999323,space,0.5773912079166621,None,282.3998550409451,282.505673224933,282.82179008296225,282.8034567909781,282.80351495801006,284.5339563329471,721.1111111111112,1.7117888330249116,KRUTI_T,001,2023-10-31_15h40.37.820,experiment,2023.2.2,119.79305704779313,2023-10-31 15h40.49.046406 +0530,
0.7,1000,unexpected,4,5,53,4,284.53959462500643,,,,,,,284.5342227499932,285.03653799998574,285.71470608294476,space,0.6726042920490727,None,285.7149544999702,286.4228535579867,286.7388263329631,286.7199799999362,286.7200255409116,288.8490816249978,411.1111111111111,2.1076078329933807,KRUTI_T,001,2023-10-31_15h40.37.820,experiment,2023.2.2,119.79305704779313,2023-10-31 15h40.49.046406 +0530,
0.1,1000,unexpected,4,6,54,0,288.8548436249839,,,,,,,288.84937270800583,289.3533534159651,290.2546030830126,space,0.896706165978685,None,290.25481866591144,290.3546981410007,290.67212183296215,290.65352674992755,290.6535627079429,292.2477301659528,426.66666666666663,1.576689416076988,KRUTI_T,001,2023-10-31_15h40.37.820,experiment,2023.2.2,119.79305704779313,2023-10-31 15h40.49.046406 +0530,
0.4,400,expected,4,7,55,3,292.25354654097464,,,,,,,292.24799183302093,292.7531202499522,293.5490030000219,space,0.7867327920394018,None,293.5495875409106,293.95467376593734,294.27215662493836,294.25328924995847,294.253333624918,295.5108853749698,425.5555555555556,1.2392057919641957,KRUTI_T,001,2023-10-31_15h40.37.820,experiment,2023.2.2,119.79305704779313,2023-10-31 15h40.49.046406 +0530,
0.7,400,expected,4,8,56,8,295.51702108292375,,,,,,,295.5111490410054,296.01376254099887,296.9715543750208,space,0.9542099159443751,None,296.97177850001026,297.672862224991,297.9881956659956,297.97023841599,297.9702830829192,299.0654101659311,416.6666666666667,1.0748408329673111,KRUTI_T,001,2023-10-31_15h40.37.820,experiment,2023.2.2,119.79305704779313,2023-10-31 15h40.49.046406 +0530,
0.4,1000,unexpected,4,9,57,2,299.07095545798074,,,,,,,299.0656704159919,299.5697129999753,300.3318310829345,space,0.7538290839875117,None,300.33250304101966,300.73910114100437,301.05479600001127,301.0366875829641,301.0367246660171,302.08844945800956,418.88888888888886,1.0345273748971522,KRUTI_T,001,2023-10-31_15h40.37.820,experiment,2023.2.2,119.79305704779313,2023-10-31 15h40.49.046406 +0530,
0.4,400,expected,4,10,58,10,302.09674999990966,,,,,,,302.0887210830115,302.58660558296833,303.38310679094866,space,0.7946500410325825,None,303.3838185829809,303.78904822493206,304.1044233329594,304.0866292079445,304.0866691250121,304.96624279092066,440.0,0.8612761660479009,KRUTI_T,001,2023-10-31_15h40.37.820,experiment,2023.2.2,119.79305704779313,2023-10-31 15h40.49.046406 +0530,
0.7,400,expected,4,11,59,5,304.97190966596827,,,,,,,304.96650612493977,305.47088083298877,306.44876329100225,space,0.9735002500237897,None,306.4493690410163,307.15570780799027,307.4711295409361,307.4529990409501,307.45303833298385,311.31571545801125,697.7777777777778,3.8415925829904154,KRUTI_T,001,2023-10-31_15h40.37.820,experiment,2023.2.2,119.79305704779313,2023-10-31 15h40.49.046406 +0530,
0.1,400,expected,5,0,60,9,311.3212561659748,,,,,,,311.3159704579739,311.8200946249999,342.2557846659329,space,30.43258479097858,None,342.2564549999079,342.35564159998904,342.6753222499974,342.653025083011,342.6530572499614,344.13834262499586,67.77777777777777,1.4649620830314234,KRUTI_T,001,2023-10-31_15h40.37.820,experiment,2023.2.2,119.79305704779313,2023-10-31 15h40.49.046406 +0530,
0.4,400,expected,5,1,61,3,344.14670195791405,,,,,,,344.13869745796546,344.638325124979,345.6480726249283,space,1.0014742909697816,None,345.64865674998146,346.0555691409507,346.3722348329611,346.3533494999865,346.35339795798063,347.59463408298325,116.66666666666664,1.2225880830083042,KRUTI_T,001,2023-10-31_15h40.37.820,experiment,2023.2.2,119.79305704779313,2023-10-31 15h40.49.046406 +0530,
0.4,1000,unexpected,5,2,62,2,347.6001938749105,,,,,,,347.5949044160079,348.09697174991015,350.01551241602283,space,1.9073637089459226,None,350.0161762079224,350.4222550159437,350.73909691593144,350.7199889579788,350.72004208294675,352.05341654096264,566.6666666666666,1.3147655830252916,KRUTI_T,001,2023-10-31_15h40.37.820,experiment,2023.2.2,119.79305704779313,2023-10-31 15h40.49.046406 +0530,
0.1,400,expected,5,3,63,6,352.06359224999323,,,,,,,352.05369824997615,352.55381991597824,352.870640499983,space,0.31320654205046594,None,352.8708589159651,352.9724761829828,353.28837629093323,353.2698598749703,353.2699112909613,354.2989805409452,594.4444444444445,1.0080404999898747,KRUTI_T,001,2023-10-31_15h40.37.820,experiment,2023.2.2,119.79305704779313,2023-10-31 15h40.49.046406 +0530,
0.1,400,expected,5,4,64,1,354.30456820793916,,,,,,,354.299247500021,354.8033851659857,355.21388404094614,space,0.4031373340403661,None,355.2141682909569,355.3224248909508,355.63895279099233,355.6200581250014,355.6200974159874,356.51253779092804,564.4444444444445,0.8729991249274462,KRUTI_T,001,2023-10-31_15h40.37.820,experiment,2023.2.2,119.79305704779313,2023-10-31 15h40.49.046406 +0530,
0.4,400,expected,5,5,65,10,356.51889391592704,,,,,,,356.5129070410039,357.0212292909855,358.6487809160026,space,1.6182406670413911,None,358.64944279100746,359.05603718293133,359.37169699999504,359.35290800000075,359.35294258291833,360.5531581660034,658.8888888888889,1.1821736670099199,KRUTI_T,001,2023-10-31_15h40.37.820,experiment,2023.2.2,119.79305704779313,2023-10-31 15h40.49.046406 +0530,
0.7,400,expected,5,6,66,5,360.56347737496253,,,,,,,360.55342545791063,361.0532079580007,362.7050874159904,space,1.646914083044976,None,362.70530641591176,363.4056505579618,363.722597957938,363.7033136659302,363.70336724992376,366.9149430829566,214.44444444444443,3.192660457920283,KRUTI_T,001,2023-10-31_15h40.37.820,experiment,2023.2.2,119.79305704779313,2023-10-31 15h40.49.046406 +0530,
0.4,400,expected,5,7,67,7,366.9204909999389,,,,,,,366.91521579097025,367.4206887909677,368.71601329091936,space,1.2936219159746543,None,368.716741250013,369.12260964094895,369.43903100001626,369.4200658330228,369.42011424992234,373.30270041595213,446.66666666666663,3.8634552920702845,KRUTI_T,001,2023-10-31_15h40.37.820,experiment,2023.2.2,119.79305704779313,2023-10-31 15h40.49.046406 +0530,
0.1,1000,unexpected,5,8,68,0,373.3133876249194,,,,,,,373.3029690409312,373.80405604094267,374.3718416659394,space,0.565084624919109,None,374.372060457943,374.4722318910179,374.78863891598303,374.77012875000946,374.7701796250185,376.5821602909127,797.7777777777777,1.790485749952495,KRUTI_T,001,2023-10-31_15h40.37.820,experiment,2023.2.2,119.79305704779313,2023-10-31 15h40.49.046406 +0530,
0.7,1000,unexpected,5,9,69,4,376.5877789579099,,,,,,,376.5824254580075,377.0882841249695,378.0968367080204,space,1.0058940419694409,None,378.0970686249202,378.8053963499959,379.12360812490806,379.10276929091197,379.102800249937,380.1663050829666,791.1111111111111,1.0438161249039695,KRUTI_T,001,2023-10-31_15h40.37.820,experiment,2023.2.2,119.79305704779313,2023-10-31 15h40.49.046406 +0530,
0.7,400,expected,5,10,70,8,380.1722224159166,,,,,,,380.1667810829822,380.66937258292455,383.77206949994434,space,3.098814124939963,None,383.7723282079678,384.47249222501415,384.7891099579865,384.7693071250105,384.76933308294974,385.76566729100887,804.4444444444446,0.9745397079968825,KRUTI_T,001,2023-10-31_15h40.37.820,experiment,2023.2.2,119.79305704779313,2023-10-31 15h40.49.046406 +0530,
0.7,400,expected,5,11,71,11,385.77144145790953,,,,,,,385.76593083294574,386.26964387495536,387.63275704102125,space,1.3615442500449717,None,387.6334140410181,388.3392399749835,388.654216124909,388.63608795800246,388.63613416592125,390.3655089579988,820.0000000000001,1.708650041022338,KRUTI_T,001,2023-10-31_15h40.37.820,experiment,2023.2.2,119.79305704779313,2023-10-31 15h40.49.046406 +0530,
0.4,400,expected,6,0,72,3,390.3712114999071,,,,,,,390.36577287490945,390.8707242499804,393.09881054097787,space,2.221706166979857,None,393.0994526249124,393.50596314099386,393.8207033749204,393.80271758302115,393.8027549579274,396.0091475410154,805.5555555555555,2.1886029159650207,KRUTI_T,001,2023-10-31_15h40.37.820,experiment,2023.2.2,119.79305704779313,2023-10-31 15h40.49.046406 +0530,
0.7,400,expected,6,1,73,11,396.0296200829325,,,,,,,396.00941154093016,396.51343937497586,398.7380662909709,space,2.2184679589699954,None,398.7382929159794,399.4392080159276,399.75475870794617,399.73670579097234,399.73673891602084,402.20621762494557,798.8888888888889,2.452453708043322,KRUTI_T,001,2023-10-31_15h40.37.820,experiment,2023.2.2,119.79305704779313,2023-10-31 15h40.49.046406 +0530,
0.7,1000,unexpected,6,2,74,4,402.2127224159194,,,,,,,402.20648020796943,402.7132713749306,405.65440145798493,space,2.93671625002753,None,405.6546294159489,406.355477100017,406.67126016598195,406.65260579099413,406.652649040916,408.30254158296157,864.4444444444445,1.6323548750951886,KRUTI_T,001,2023-10-31_15h40.37.820,experiment,2023.2.2,119.79305704779313,2023-10-31 15h40.49.046406 +0530,
0.1,400,expected,6,3,75,9,408.3133957500104,,,,,,,408.30281916598324,408.80364262498915,409.28968279098626,space,0.4782824580324814,None,409.2899131659651,409.3955163909239,409.71245208301116,409.6934607080184,409.69350054091774,412.4689582500141,146.66666666666666,2.7569307079538703,KRUTI_T,001,2023-10-31_15h40.37.820,experiment,2023.2.2,119.79305704779313,2023-10-31 15h40.49.046406 +0530,
0.4,400,expected,6,4,76,10,412.4800749159185,,,,,,,412.4692177079851,412.9685582079692,414.1408804579405,space,1.1623904580483213,None,414.14123099995777,414.54540993297707,414.86183999991044,414.8434398329118,414.84348541591316,416.0027378749801,206.66666666666666,1.1414759999606758,KRUTI_T,001,2023-10-31_15h40.37.820,experiment,2023.2.2,119.79305704779313,2023-10-31 15h40.49.046406 +0530,
0.1,400,expected,6,5,77,1,416.0132953749271,,,,,,,416.0030058749253,416.5051807910204,417.11577308294363,space,0.6089701249729842,None,417.11647274997085,417.2222401410225,417.53760266595054,417.51990579091944,417.5199508329388,418.9985314159421,141.11111111111114,1.4583149590762332,KRUTI_T,001,2023-10-31_15h40.37.820,experiment,2023.2.2,119.79305704779313,2023-10-31 15h40.49.046406 +0530,
0.7,400,expected,6,6,78,5,419.0041016659234,,,,,,,418.9987974159885,419.5049576659221,419.882871040958,space,0.3757623339770362,None,419.8831815000158,420.58924010001357,420.90402883291245,420.88612495793495,420.88617691595573,424.48398029094096,288.88888888888886,3.579737166990526,KRUTI_T,001,2023-10-31_15h40.37.820,experiment,2023.2.2,119.79305704779313,2023-10-31 15h40.49.046406 +0530,
0.4,1000,unexpected,6,7,79,2,424.4900654159719,,,,,,,424.48426633293275,424.98861541599035,425.9644404159626,space,0.9725043750368059,None,425.9646744999336,426.3722036830266,426.68596108292695,426.6691523749614,426.6691654159222,427.5656452499097,527.7777777777778,0.8766611670143902,KRUTI_T,001,2023-10-31_15h40.37.820,experiment,2023.2.2,119.79305704779313,2023-10-31 15h40.49.046406 +0530,
0.7,400,expected,6,8,80,8,427.57131433300674,,,,,,,427.5659134159796,428.06918304099236,428.42231754097156,space,0.3524905410595238,None,428.4225279579405,429.1227826000075,429.43970620795153,429.4200058329152,429.4200602079509,430.7321313749999,206.66666666666666,1.2902476659510285,KRUTI_T,001,2023-10-31_15h40.37.820,experiment,2023.2.2,119.79305704779313,2023-10-31 15h40.49.046406 +0530,
0.1,1000,unexpected,6,9,81,0,430.73778537497856,,,,,,,430.73239562497474,431.2369245829759,431.7552037499845,space,0.5175412079552189,None,431.75546045799274,431.8557196000009,432.1715449159965,432.15307837491855,432.1531212499831,433.51972808293067,56.66666666666664,1.348573915893212,KRUTI_T,001,2023-10-31_15h40.37.820,experiment,2023.2.2,119.79305704779313,2023-10-31 15h40.49.046406 +0530,
0.1,400,expected,6,10,82,6,433.5300629999256,,,,,,,433.5200489159906,434.0212457079906,434.45536170795094,space,0.42794704099651426,None,434.45600404101424,434.5556919749477,434.87228620797396,434.85328499996103,434.85333558300044,437.42184395797085,52.22222222222223,2.550265625002794,KRUTI_T,001,2023-10-31_15h40.37.820,experiment,2023.2.2,119.79305704779313,2023-10-31 15h40.49.046406 +0530,
0.4,400,expected,6,11,83,7,437.42922762501985,,,,,,,437.4221321659861,437.918308082968,438.90491662500426,space,0.9822776250075549,None,438.9052386250114,439.30579897494755,439.62185200001113,439.6027924999362,439.6028359159827,442.00572991592344,827.7777777777777,2.3848249580478296,KRUTI_T,001,2023-10-31_15h40.37.820,experiment,2023.2.2,119.79305704779313,2023-10-31 15h40.49.046406 +0530,
0.1,1000,unexpected,7,0,84,0,442.0130530409515,,,,,,,442.005999624962,442.50348800001666,443.50508249993436,space,0.9961651670746505,None,443.50530866591725,443.6054446830065,443.9214375410229,443.90379150002263,443.9038517079316,445.97654041601345,297.7777777777778,2.055735040921718,KRUTI_T,001,2023-10-31_15h40.37.820,experiment,2023.2.2,119.79305704779313,2023-10-31 15h40.49.046406 +0530,
0.4,400,expected,7,1,85,7,445.98261791595723,,,,,,,445.97680612502154,446.480110415956,447.0141389159253,space,0.5333942079450935,None,447.0143411249155,447.42221093295376,447.73815033293795,447.7194729159819,447.7195227079792,449.0266574579291,140.0,1.2892903750762343,KRUTI_T,001,2023-10-31_15h40.37.820,experiment,2023.2.2,119.79305704779313,2023-10-31 15h40.49.046406 +0530,
0.4,400,expected,7,2,86,10,449.03275129094254,,,,,,,449.0269459999399,449.52932624996174,450.18205704097636,space,0.6462645839201286,None,450.18278420798015,450.58899901598926,450.9047179999761,450.88650174997747,450.88653920800425,452.00494583300315,613.3333333333333,1.1011843340238556,KRUTI_T,001,2023-10-31_15h40.37.820,experiment,2023.2.2,119.79305704779313,2023-10-31 15h40.49.046406 +0530,
0.1,400,expected,7,3,87,9,452.01251916598994,,,,,,,452.0052422080189,452.5036666659871,453.8718411249574,space,1.3669838749337941,None,453.8720574999461,453.9720647659968,454.2884153749328,454.2697816659929,454.26983379095327,455.389703832916,843.3333333333333,1.1020370000042021,KRUTI_T,001,2023-10-31_15h40.37.820,experiment,2023.2.2,119.79305704779313,2023-10-31 15h40.49.046406 +0530,
0.7,400,expected,7,4,88,8,455.3959252079949,,,,,,,455.3899589579087,455.89680200000294,457.16940470796544,space,1.271383166895248,None,457.16961029102094,457.8724116829806,458.1888040410122,458.16973583295476,458.16978829097934,459.3535482499283,56.66666666666664,1.1650912079494447,KRUTI_T,001,2023-10-31_15h40.37.820,experiment,2023.2.2,119.79305704779313,2023-10-31 15h40.49.046406 +0530,
0.7,400,expected,7,5,89,11,459.3632900000084,,,,,,,459.3538112079259,459.8547792499885,460.57203104090877,space,0.709655583021231,None,460.57225904101506,461.27217768296833,461.58872349991,461.5697142499266,461.5697686659405,463.95163741591386,186.66666666666666,2.362926165922545,KRUTI_T,001,2023-10-31_15h40.37.820,experiment,2023.2.2,119.79305704779313,2023-10-31 15h40.49.046406 +0530,
0.7,1000,unexpected,7,6,90,4,463.9627629580209,,,,,,,463.95190333295614,464.45311579096597,466.76360674994066,space,2.3052509999834,None,466.76388129091356,467.4722260580282,467.78905608295463,467.7696444579633,467.7696909159422,469.4314925830113,222.2222222222222,1.6429497499484569,KRUTI_T,001,2023-10-31_15h40.37.820,experiment,2023.2.2,119.79305704779313,2023-10-31 15h40.49.046406 +0530,
0.1,400,expected,7,7,91,6,469.4371447080048,,,,,,,469.4317502499325,469.9372899159789,471.2554707080126,space,1.314189957920462,None,471.25570308300667,471.35526780796937,471.6717537079239,471.6531036659144,471.6531472079223,472.77589333301876,151.1111111111111,1.10501016699709,KRUTI_T,001,2023-10-31_15h40.37.820,experiment,2023.2.2,119.79305704779313,2023-10-31 15h40.49.046406 +0530,
0.4,1000,unexpected,7,8,92,2,472.78224174992647,,,,,,,472.77615045791026,473.28002304094844,473.65588283294346,space,0.36959341703914106,None,473.65609229099937,474.05579464092153,474.3718331659911,474.35321804101113,474.3532656659372,475.6483029999072,394.44444444444446,1.2742732500191778,KRUTI_T,001,2023-10-31_15h40.37.820,experiment,2023.2.2,119.79305704779313,2023-10-31 15h40.49.046406 +0530,
0.4,400,expected,7,9,93,3,475.65388537500985,,,,,,,475.64861254091375,476.14847995794844,476.4980471249437,space,0.34364654193632305,None,476.49877958290745,476.90567318293034,477.2202656660229,477.202282208018,477.2022966250079,478.4213122909423,401.1111111111111,1.2025003340095282,KRUTI_T,001,2023-10-31_15h40.37.820,experiment,2023.2.2,119.79305704779313,2023-10-31 15h40.49.046406 +0530,
0.7,400,expected,7,10,94,5,478.4292234579334,,,,,,,478.42166350001935,478.92066299996804,479.2659237079788,space,0.34329862508457154,None,479.2666604159167,479.97228018300376,480.28747866593767,480.26993141591083,480.2699713750044,481.62307216599584,159.99999999999997,1.3355319160036743,KRUTI_T,001,2023-10-31_15h40.37.820,experiment,2023.2.2,119.79305704779313,2023-10-31 15h40.49.046406 +0530,
0.1,400,expected,7,11,95,1,481.6293882499449,,,,,,,481.62334254093,482.12944670801517,482.5559974159114,space,0.4187913329806179,None,482.55622216593474,482.6554851409863,482.97058741596993,482.952940790914,482.95297766593285,484.3360227079829,124.44444444444447,1.3657726249657571,KRUTI_T,001,2023-10-31_15h40.37.820,experiment,2023.2.2,119.79305704779313,2023-10-31 15h40.49.046406 +0530,
0.4,1000,unexpected,8,0,96,2,484.3466115409974,,,,,,,484.33628520800266,484.83700708299875,485.4572501659859,space,0.6103423330932856,None,485.45758454094175,485.8632239749539,486.180853290949,486.158970749937,486.15898345794994,487.2819492499111,200.0,1.0902438330231234,KRUTI_T,001,2023-10-31_15h40.37.820,experiment,2023.2.2,119.79305704779313,2023-10-31 15h40.49.046406 +0530,
0.4,400,expected,8,1,97,7,487.2967115829233,,,,,,,487.2827808749862,487.78772554092575,488.34843566594645,space,0.5543691660277545,None,488.34881649992894,488.75495901600226,489.07125995797105,489.05193279101513,489.0519626659807,492.2705379159888,186.66666666666666,3.200471541029401,KRUTI_T,001,2023-10-31_15h40.37.820,experiment,2023.2.2,119.79305704779313,2023-10-31 15h40.49.046406 +0530,
0.7,400,expected,8,2,98,5,492.2793049159227,,,,,,,492.2708892079536,492.76987362501677,493.64788529102225,space,0.8772409580415115,None,493.6481345000211,494.3557673079311,494.6742315830197,494.6530545409769,494.6531075409148,496.27392304094974,717.7777777777777,1.6014581660274416,KRUTI_T,001,2023-10-31_15h40.37.820,experiment,2023.2.2,119.79305704779313,2023-10-31 15h40.49.046406 +0530,
0.7,400,expected,8,3,99,8,496.27956470800564,,,,,,,496.2741821249947,496.7796335829189,497.13869908300694,space,0.3567524590762332,None,497.1393920829287,497.8392036829726,498.15357170801144,498.13650049990974,498.1365740830079,500.7599901659414,197.77777777777777,2.6070581669919193,KRUTI_T,001,2023-10-31_15h40.37.820,experiment,2023.2.2,119.79305704779313,2023-10-31 15h40.49.046406 +0530,
0.1,1000,unexpected,8,4,100,0,500.7665684999665,,,,,,,500.7602614579955,501.2628213330172,502.10318108298816,space,0.8363699589390308,None,502.10341416602023,502.20499222493964,502.52169974998105,502.5034895410063,502.5035277499119,503.9979883329943,226.66666666666669,1.4761348749743775,KRUTI_T,001,2023-10-31_15h40.37.820,experiment,2023.2.2,119.79305704779313,2023-10-31 15h40.49.046406 +0530,
0.4,400,expected,8,5,101,10,504.00427891593426,,,,,,,503.998340040911,504.502389207948,504.854096832918,space,0.3458253750577569,None,504.8543287079083,505.2553301409469,505.5709742499748,505.5532392079476,505.5532915829681,507.0482323329197,177.77777777777774,1.4625177920097485,KRUTI_T,001,2023-10-31_15h40.37.820,experiment,2023.2.2,119.79305704779313,2023-10-31 15h40.49.046406 +0530,
0.1,400,expected,8,6,102,6,507.05415008298587,,,,,,,507.0484878330026,507.55312125000637,509.3395264579449,space,1.7817615829408169,None,509.3399951659376,509.43929830800045,509.75317599996924,509.73557124997023,509.73558558290824,518.3928383749444,687.7777777777778,8.640410417108797,KRUTI_T,001,2023-10-31_15h40.37.820,experiment,2023.2.2,119.79305704779313,2023-10-31 15h40.49.046406 +0530,
0.7,400,expected,8,7,103,11,518.4004610829288,,,,,,,518.3936474579386,518.8964675830211,519.3806253329385,space,0.47489941702224314,None,519.3808899580035,520.088927016023,520.4047232909361,520.3866474159295,520.3866945829941,523.841922749998,205.55555555555554,3.4381849170895293,KRUTI_T,001,2023-10-31_15h40.37.820,experiment,2023.2.2,119.79305704779313,2023-10-31 15h40.49.046406 +0530,
0.1,400,expected,8,8,104,1,523.8487379999133,,,,,,,523.8425298749935,524.3463825000217,525.1303305409383,space,0.7743503330275416,None,525.1305864580208,525.2384497249848,525.5566233749269,525.5366427499102,525.5366974580102,527.0404374579666,193.33333333333337,1.4836937499931082,KRUTI_T,001,2023-10-31_15h40.37.820,experiment,2023.2.2,119.79305704779313,2023-10-31 15h40.49.046406 +0530,
0.7,1000,unexpected,8,9,105,4,527.0482051660074,,,,,,,527.0410508329514,527.5526499159168,531.0325904999627,space,3.474912125035189,None,531.0339320409112,531.7388204329297,532.0575842499966,532.0365739580011,532.0366226249607,533.5238231249386,686.6666666666666,1.4678095420822501,KRUTI_T,001,2023-10-31_15h40.37.820,experiment,2023.2.2,119.79305704779313,2023-10-31 15h40.49.046406 +0530,
0.4,400,expected,8,10,106,3,533.530380583019,,,,,,,533.524179333006,534.0296954999212,535.5812849579379,space,1.5463173330063,None,535.5819615829969,535.9884721830138,536.3044374579331,536.2861077080015,536.2861523749307,537.9382711249636,126.66666666666664,1.6342902079923078,KRUTI_T,001,2023-10-31_15h40.37.820,experiment,2023.2.2,119.79305704779313,2023-10-31 15h40.49.046406 +0530,
0.1,400,expected,8,11,107,9,537.945612915908,,,,,,,537.938762707985,538.436796749942,541.7803250409197,space,3.339368624961935,None,541.7805442080135,541.888134224934,542.2008876249893,542.1840979160042,542.1841130409157,544.1663274159655,247.77777777777777,1.9653659589821473,KRUTI_T,001,2023-10-31_15h40.37.820,experiment,2023.2.2,119.79305704779313,2023-10-31 15h40.49.046406 +0530,
0.4,400,expected,9,0,108,3,544.1719421249582,,,,,,,544.1667297499953,544.6709602499614,545.7807432499249,space,1.105872958083637,None,545.7809586250223,546.188932349917,546.5042810409795,546.486524665961,546.4865651659202,548.0656138749328,246.66666666666666,1.5611737079452723,KRUTI_T,001,2023-10-31_15h40.37.820,experiment,2023.2.2,119.79305704779313,2023-10-31 15h40.49.046406 +0530,
0.7,400,expected,9,1,109,8,548.0714871659875,,,,,,,548.0658865829464,548.570224499912,549.2209606659599,space,0.6471498750615865,None,549.2211756659672,549.9220500160125,550.2373838749481,550.2193574159173,550.2194003749173,552.6510389159666,250.0,2.413342332933098,KRUTI_T,001,2023-10-31_15h40.37.820,experiment,2023.2.2,119.79305704779313,2023-10-31 15h40.49.046406 +0530,
0.7,400,expected,9,2,110,5,552.6627705829451,,,,,,,552.6513263749657,553.1515007079579,554.4986266249325,space,1.3453533749561757,None,554.4990499159321,555.2048768909997,555.5224519579206,555.5027772909962,555.5028236659709,557.2351597909583,448.8888888888889,1.7139904169598594,KRUTI_T,001,2023-10-31_15h40.37.820,experiment,2023.2.2,119.79305704779313,2023-10-31 15h40.49.046406 +0530,
0.4,400,expected,9,3,111,7,557.246120790951,,,,,,,557.2354253329104,557.7360433329595,558.1297246660106,space,0.38852237502578646,None,558.1299497080036,558.5394989330205,558.8604227909818,558.8406537909759,558.8406837499933,559.9828490000218,466.6666666666667,1.1233504159608856,KRUTI_T,001,2023-10-31_15h40.37.820,experiment,2023.2.2,119.79305704779313,2023-10-31 15h40.49.046406 +0530,
0.4,1000,unexpected,9,4,112,2,559.9887964579975,,,,,,,559.9832078749314,560.488167332951,560.5972489159321,space,0.10449162498116493,None,560.5975313329836,561.004638724972,561.3209787500091,561.3024893749971,561.3025313329417,562.8490972910076,694.4444444444445,1.5291456250706688,KRUTI_T,001,2023-10-31_15h40.37.820,experiment,2023.2.2,119.79305704779313,2023-10-31 15h40.49.046406 +0530,
0.1,400,expected,9,5,113,9,562.8550374159822,,,,,,,562.8493735829834,563.3527727079345,564.9641244999366,space,1.6019843339454383,None,564.9648357909173,565.0716266000061,565.3886083749821,565.3690880829236,565.3691374999471,566.8254010829842,716.6666666666666,1.4379286670591682,KRUTI_T,001,2023-10-31_15h40.37.820,experiment,2023.2.2,119.79305704779313,2023-10-31 15h40.49.046406 +0530,
0.1,400,expected,9,6,114,1,566.8315084999194,,,,,,,566.8256619999884,567.3295404160162,567.7641399579588,space,0.4250765830511227,None,567.7647903329926,567.8719550999929,568.1879394159187,568.1696028329898,568.1696570409695,570.3495068330085,171.11111111111111,2.1612316250102594,KRUTI_T,001,2023-10-31_15h40.37.820,experiment,2023.2.2,119.79305704779313,2023-10-31 15h40.49.046406 +0530,
0.4,400,expected,9,7,115,10,570.3552776660072,,,,,,,570.3497731660027,570.8523511659587,571.8705013329163,space,1.0129818330751732,None,571.8707746249856,572.2718562659691,572.5874292909866,572.5694078749511,572.5694461659295,573.8444374999963,229.99999999999997,1.2571522500365973,KRUTI_T,001,2023-10-31_15h40.37.820,experiment,2023.2.2,119.79305704779313,2023-10-31 15h40.49.046406 +0530,
0.7,400,expected,9,8,116,11,573.8499417499406,,,,,,,573.8446992079262,574.3454320409801,574.8056079999078,space,0.4530990830389783,None,574.8058223329717,575.5048733910196,575.8210957079427,575.8019174579531,575.8019551249454,577.5351009159349,195.55555555555554,1.7142145419493318,KRUTI_T,001,2023-10-31_15h40.37.820,experiment,2023.2.2,119.79305704779313,2023-10-31 15h40.49.046406 +0530,
0.7,1000,unexpected,9,9,117,4,577.5453985829372,,,,,,,577.5353661659174,578.0357137909159,578.7484012079658,space,0.7083634169539437,None,578.749060290982,579.4549628499778,579.7705775409704,579.752137415926,579.7521813329076,581.609724665992,870.0,1.8400909999618307,KRUTI_T,001,2023-10-31_15h40.37.820,experiment,2023.2.2,119.79305704779313,2023-10-31 15h40.49.046406 +0530,
0.1,400,expected,9,10,118,6,581.6157935409574,,,,,,,581.6099936249666,582.1128307079198,582.7882626659703,space,0.6684760829666629,None,582.7885333750164,582.8880442659254,583.2042444580002,583.1862125829794,583.1862499999115,586.0652582499897,30.00000000000003,2.8609456249978393,KRUTI_T,001,2023-10-31_15h40.37.820,experiment,2023.2.2,119.79305704779313,2023-10-31 15h40.49.046406 +0530,
0.1,1000,unexpected,9,11,119,0,586.0709610829363,,,,,,,586.0655186249642,586.5704130829545,587.4374010829488,space,0.8614756669849157,None,587.4376464999514,587.5382280579186,587.8540529579623,587.8361634159228,587.8362010829151,589.867580082966,63.33333333333335,2.013353875023313,KRUTI_T,001,2023-10-31_15h40.37.820,experiment,2023.2.2,119.79305704779313,2023-10-31 15h40.49.046406 +0530,
