delay,frequency,condition,trials.thisRepN,trials.thisTrialN,trials.thisN,trials.thisIndex,thisRow.t,notes,instructions.started,instructions.stopped,key_resp.keys,key_resp.rt,key_resp.duration,Cue.started,response.started,Cue.stopped,response.keys,response.rt,response.duration,beep.started,sound_1.started,sound_1.stopped,beep.stopped,report_timing.started,report_timing.stopped,slider.response,slider.rt,participant,session,date,expName,psychopyVersion,frameRate,expStart,
,,,,,,,,,0.05504699994344264,109.7869764160132,space,109.61209733400028,None,,,,,,,,,,,,,,,muskan,001,2023-10-31_15h03.06.010,experiment,2023.2.2,118.900409005157,2023-10-31 15h03.19.273856 +0530,
0.7,400,expected,0,0,0,5,110.00142774998676,,,,,,,109.82920591603033,110.29487099999096,112.32436891598627,space,2.020678000058979,None,112.32544245792087,113.03145569998306,113.37392629100941,113.32869287498761,113.3287395000225,121.83050641592126,251.11111111111111,8.483946832944639,muskan,001,2023-10-31_15h03.06.010,experiment,2023.2.2,118.900409005157,2023-10-31 15h03.19.273856 +0530,
0.4,400,expected,0,1,1,3,121.8388401659904,,,,,,,121.83095949993003,122.33118300000206,124.59140399994794,space,2.258652957971208,None,124.59207820799202,124.99786157503259,125.31337799993344,125.2953997500008,125.29543779103551,127.66465499997139,493.33333333333337,2.351760874968022,muskan,001,2023-10-31_15h03.06.010,experiment,2023.2.2,118.900409005157,2023-10-31 15h03.19.273856 +0530,
0.4,400,expected,0,2,2,10,127.67231075000018,,,,,,,127.66492725000717,128.16261504101567,129.16384687495884,space,0.994291290990077,None,129.1640709999483,129.56479815794154,129.88054537493736,129.86237833299674,129.86241850000806,132.52045674994588,246.66666666666666,2.640160582959652,muskan,001,2023-10-31_15h03.06.010,experiment,2023.2.2,118.900409005157,2023-10-31 15h03.19.273856 +0530,
0.7,400,expected,0,3,3,11,132.52592870802619,,,,,,,132.52072874992155,133.02296924998518,134.66656845796388,space,1.6338232080452144,None,134.66684716602322,135.37034028295892,135.6864327499643,135.6685040409211,135.66854716592934,138.7998823330272,505.55555555555554,3.114395125070587,muskan,001,2023-10-31_15h03.06.010,experiment,2023.2.2,118.900409005157,2023-10-31 15h03.19.273856 +0530,
0.1,400,expected,0,4,4,1,138.8061645409325,,,,,,,138.80015120794997,139.30697429098655,140.81406079092994,space,1.5014347080141306,None,140.81427841598634,140.91452728298026,141.2314758329885,141.2126200409839,141.21266674995422,143.40806954097934,253.3333333333333,2.173692249925807,muskan,001,2023-10-31_15h03.06.010,experiment,2023.2.2,118.900409005157,2023-10-31 15h03.19.273856 +0530,
0.1,1000,unexpected,0,5,5,0,143.4136136249872,,,,,,,143.40834291593637,143.91233354096767,146.74737200001255,space,2.8303933329880238,None,146.7476423329208,146.84806136593687,147.16535479098093,147.14577900001314,147.14581370796077,150.6989851249382,250.0,3.5341407920932397,muskan,001,2023-10-31_15h03.06.010,experiment,2023.2.2,118.900409005157,2023-10-31 15h03.19.273856 +0530,
0.7,1000,unexpected,0,6,6,4,150.70572379103396,,,,,,,150.69925270800013,151.20672575000208,151.8740323749371,space,0.660116916988045,None,151.87470679101534,152.58146090798544,152.89650779101066,152.87878816598095,152.87884329096414,154.42348420794588,501.1111111111111,1.5271960839163512,muskan,001,2023-10-31_15h03.06.010,experiment,2023.2.2,118.900409005157,2023-10-31 15h03.19.273856 +0530,
0.7,400,expected,0,7,7,8,154.42921849992126,,,,,,,154.42374508292414,154.93121366598643,155.86519491602667,space,0.9286970839602873,None,155.86542395793367,156.56474999098572,156.88124200003222,156.86274483299349,156.86279070796445,158.58995545795187,750.0,1.7091864579124376,muskan,001,2023-10-31_15h03.06.010,experiment,2023.2.2,118.900409005157,2023-10-31 15h03.19.273856 +0530,
0.1,400,expected,0,8,8,6,158.59569674998056,,,,,,,158.59021820803173,159.08944879099727,160.00870904093608,space,0.9176814169622958,None,160.00941637495998,160.1147444500122,160.4291443330003,160.4119188329205,160.41195383295417,162.41188270796556,250.0,1.9812525419984013,muskan,001,2023-10-31_15h03.06.010,experiment,2023.2.2,118.900409005157,2023-10-31 15h03.19.273856 +0530,
0.4,1000,unexpected,0,9,9,2,162.42298783292063,,,,,,,162.41228370799217,162.91370933293365,162.92298274999484,space,0.003956542001105845,None,162.92326141602825,163.3314474910032,163.64800174999982,163.62906404095702,163.6290987499524,165.63444204092957,148.8888888888889,1.987519916961901,muskan,001,2023-10-31_15h03.06.010,experiment,2023.2.2,118.900409005157,2023-10-31 15h03.19.273856 +0530,
0.4,400,expected,0,10,10,7,165.64051950001158,,,,,,,165.63471020793077,166.13957933301572,167.98102149995975,space,1.8389212919864804,None,167.981249375036,168.38174490798264,168.69734945800155,168.67940000002272,168.6794357500039,170.81399891595356,411.1111111111111,2.117403040989302,muskan,001,2023-10-31_15h03.06.010,experiment,2023.2.2,118.900409005157,2023-10-31 15h03.19.273856 +0530,
0.1,400,expected,0,11,11,9,170.82263729092665,,,,,,,170.81427012500353,171.31120154098608,172.05744937493,space,0.741789749939926,None,172.05815983295906,172.16471119998022,172.48071924992837,172.46264799998607,172.46269120799843,174.3181146660354,39.99999999999998,1.837788917007856,muskan,001,2023-10-31_15h03.06.010,experiment,2023.2.2,118.900409005157,2023-10-31 15h03.19.273856 +0530,
0.4,400,expected,1,0,12,10,174.33892250002827,,,,,,,174.31838737498038,174.8234824159881,176.59781837498304,space,1.7701134169474244,None,176.59805775003042,176.9979131999891,177.31342908297665,177.29541304102167,177.2954500829801,180.60078924999107,511.1111111111111,3.2880322079872712,muskan,001,2023-10-31_15h03.06.010,experiment,2023.2.2,118.900409005157,2023-10-31 15h03.19.273856 +0530,
0.1,400,expected,1,1,13,6,180.60722899995744,,,,,,,180.6010560829891,181.10692145803478,181.96521629102062,space,0.8512590000173077,None,181.96542762499303,182.06482436594086,182.37992404098623,182.36230504093692,182.36234112503007,183.83559887495358,404.44444444444446,1.4560031670844182,muskan,001,2023-10-31_15h03.06.010,experiment,2023.2.2,118.900409005157,2023-10-31 15h03.19.273856 +0530,
0.7,400,expected,1,2,14,8,183.84216341597494,,,,,,,183.8358693330083,184.33999300003052,184.7911649160087,space,0.44221374997869134,None,184.79186270793434,185.4985098659992,185.8157136660302,185.79592974996194,185.79597612493671,186.9458102909848,705.5555555555555,1.1297395420260727,muskan,001,2023-10-31_15h03.06.010,experiment,2023.2.2,118.900409005157,2023-10-31 15h03.19.273856 +0530,
0.4,400,expected,1,3,15,3,186.95619320799597,,,,,,,186.94608204101678,187.44602562498767,188.49105070799123,space,1.0354555409867316,None,188.49170208303258,188.8984765329398,189.21693804103415,189.19903124996927,189.1990803750232,190.51776795799378,762.2222222222223,1.3009671249892563,muskan,001,2023-10-31_15h03.06.010,experiment,2023.2.2,118.900409005157,2023-10-31 15h03.19.273856 +0530,
0.1,400,expected,1,4,16,1,190.52388350002002,,,,,,,190.51803058292717,191.0226943329908,191.5978807079373,space,0.5725344580132514,None,191.59810637496412,191.6982243250124,192.01347520796116,191.99559320800472,191.9956442079274,193.8284239579225,222.2222222222222,1.8150505420053378,muskan,001,2023-10-31_15h03.06.010,experiment,2023.2.2,118.900409005157,2023-10-31 15h03.19.273856 +0530,
0.7,1000,unexpected,1,5,17,4,193.83960520802066,,,,,,,193.8286868330324,194.3313453749288,195.22437516599894,space,0.884860249934718,None,195.22508470795583,195.93198994994162,196.2476498329779,196.22932691592723,196.22937574994285,197.62888237496372,293.3333333333333,1.3807320840423927,muskan,001,2023-10-31_15h03.06.010,experiment,2023.2.2,118.900409005157,2023-10-31 15h03.19.273856 +0530,
0.4,400,expected,1,6,18,7,197.63962587493006,,,,,,,197.62914700002875,198.1315191249596,199.17560558300465,space,1.0424295000266284,None,199.17627195792738,199.58192282500676,199.89766445802525,199.87960487499367,199.87964833294973,201.02647345792502,577.7777777777777,1.1281973330769688,muskan,001,2023-10-31_15h03.06.010,experiment,2023.2.2,118.900409005157,2023-10-31 15h03.19.273856 +0530,
0.7,400,expected,1,7,19,11,201.03210729092825,,,,,,,201.0267354999669,201.53056662494782,202.7123073330149,space,1.1768821659497917,None,202.71252549998462,203.41536528295836,203.73319983296096,203.71291570796166,203.71296133298893,205.04045108298305,435.5555555555556,1.3077016669558361,muskan,001,2023-10-31_15h03.06.010,experiment,2023.2.2,118.900409005157,2023-10-31 15h03.19.273856 +0530,
0.7,400,expected,1,8,20,5,205.04618587496225,,,,,,,205.04071437497623,205.54812958301045,206.17516854102723,space,0.6254676249809563,None,206.17586399998982,206.8819987000199,207.19803941599093,207.17902241600677,207.1790689160116,208.16545400000177,109.99999999999999,0.9674177919514477,muskan,001,2023-10-31_15h03.06.010,experiment,2023.2.2,118.900409005157,2023-10-31 15h03.19.273856 +0530,
0.4,1000,unexpected,1,9,21,2,208.17287641600706,,,,,,,208.1657245409442,208.6918292909395,210.64898345794063,space,1.9536944589344785,None,210.64954895793926,211.04881015797145,211.3649316249648,211.34519545792136,211.34523220802657,212.48111554095522,73.3333333333333,1.1175160000566393,muskan,001,2023-10-31_15h03.06.010,experiment,2023.2.2,118.900409005157,2023-10-31 15h03.19.273856 +0530,
0.1,1000,unexpected,1,10,22,0,212.4889681659406,,,,,,,212.48144687502645,212.9821198330028,213.35803629097063,space,0.3668510830029845,None,213.35868712502997,213.4651581580285,213.7804422909394,213.7625415829243,213.76258333295118,214.81623583298642,354.44444444444446,1.036126708961092,muskan,001,2023-10-31_15h03.06.010,experiment,2023.2.2,118.900409005157,2023-10-31 15h03.19.273856 +0530,
0.1,400,expected,1,11,23,9,214.82235120795667,,,,,,,214.81649979099166,215.3148013750324,216.54864087502938,space,1.2296797919552773,None,216.54886670794804,216.64811728294006,216.96485645801295,216.9462497079512,216.9462977499934,218.582341750036,650.0,1.6179996670689434,muskan,001,2023-10-31_15h03.06.010,experiment,2023.2.2,118.900409005157,2023-10-31 15h03.19.273856 +0530,
0.7,1000,unexpected,2,0,24,4,218.58901937492192,,,,,,,218.58261016593315,219.08061929093674,219.99778679094743,space,0.9162361669586971,None,219.99800258292817,220.69884840799494,221.01483474997804,220.99631512502674,220.99635599995963,222.48077404103242,420.0,1.4651284159626812,muskan,001,2023-10-31_15h03.06.010,experiment,2023.2.2,118.900409005157,2023-10-31 15h03.19.273856 +0530,
0.1,400,expected,2,1,25,6,222.489856124972,,,,,,,222.48106324998662,222.981311374926,223.92485220800154,space,0.9356300419894978,None,223.92552937497385,224.03173924102447,224.3472086660331,224.32960900000762,224.32964649994392,225.62406812503468,283.3333333333333,1.2776413339888677,muskan,001,2023-10-31_15h03.06.010,experiment,2023.2.2,118.900409005157,2023-10-31 15h03.19.273856 +0530,
0.1,400,expected,2,2,26,9,225.6297677499242,,,,,,,225.62432687496766,226.13002737495117,226.68084674992133,space,0.5443406669655815,None,226.68109529092908,226.78174978301394,227.09790583292488,227.0797332909424,227.07978249993175,228.0932612499455,287.77777777777777,0.995001541916281,muskan,001,2023-10-31_15h03.06.010,experiment,2023.2.2,118.900409005157,2023-10-31 15h03.19.273856 +0530,
0.4,400,expected,2,3,27,3,228.0994599580299,,,,,,,228.093530416023,228.5969140829984,229.38199333299417,space,0.7835056659532711,None,229.3822865409311,229.7822687000036,230.09822766599245,230.07940299995244,230.0794537080219,230.89783425000496,453.3333333333333,0.8002678749617189,muskan,001,2023-10-31_15h03.06.010,experiment,2023.2.2,118.900409005157,2023-10-31 15h03.19.273856 +0530,
0.1,1000,unexpected,2,4,28,0,230.90636645792983,,,,,,,230.89809354103636,231.39854691596702,231.7478991659591,space,0.3473104159347713,None,231.7481199579779,231.84882044994737,232.16558499995153,232.14636212494224,232.14640912495088,233.11358520796057,582.2222222222222,0.9484222079627216,muskan,001,2023-10-31_15h03.06.010,experiment,2023.2.2,118.900409005157,2023-10-31 15h03.19.273856 +0530,
0.4,1000,unexpected,2,5,29,2,233.1230969580356,,,,,,,233.11389979103114,233.61589933303185,235.09154670801945,space,1.4691645830171183,None,235.0921998330159,235.49866311594377,235.81660329096485,235.79611087497324,235.79616054100916,236.79930695798248,577.7777777777777,0.9826139160431921,muskan,001,2023-10-31_15h03.06.010,experiment,2023.2.2,118.900409005157,2023-10-31 15h03.19.273856 +0530,
0.4,400,expected,2,6,30,10,236.80627108295448,,,,,,,236.79957283299882,237.30687908292748,238.0316248750314,space,0.7184406250016764,None,238.03184141602833,238.4322629910195,238.74755270802416,238.72975795797538,238.72981520800386,239.84781945799477,751.1111111111111,1.101082041976042,muskan,001,2023-10-31_15h03.06.010,experiment,2023.2.2,118.900409005157,2023-10-31 15h03.19.273856 +0530,
0.7,400,expected,2,7,31,11,239.85656908294186,,,,,,,239.8480862500146,240.34831099992152,240.87503174995072,space,0.5210434590699151,None,240.87570149998646,241.58230053300503,241.89722670800984,241.87945483298972,241.87950158293825,242.78119350003544,597.7777777777777,0.8847874579951167,muskan,001,2023-10-31_15h03.06.010,experiment,2023.2.2,118.900409005157,2023-10-31 15h03.19.273856 +0530,
0.7,400,expected,2,8,32,5,242.7898512079846,,,,,,,242.7814611659851,243.28242674993817,244.13109649997205,space,0.8461359170032665,None,244.1313520829426,244.83228153297676,245.14523954095785,245.12869158294052,245.12870324996766,246.23640404094476,463.3333333333333,1.091130584012717,muskan,001,2023-10-31_15h03.06.010,experiment,2023.2.2,118.900409005157,2023-10-31 15h03.19.273856 +0530,
0.4,400,expected,2,9,33,7,246.24252116598655,,,,,,,246.2366785829654,246.74007129098754,247.34831166593358,space,0.6071107080206275,None,247.34854387503583,247.74861561593133,248.06357304099947,248.04639054101426,248.04643291595858,249.67836145800538,833.3333333333333,1.6139760829973966,muskan,001,2023-10-31_15h03.06.010,experiment,2023.2.2,118.900409005157,2023-10-31 15h03.19.273856 +0530,
0.1,400,expected,2,10,34,1,249.68980033299886,,,,,,,249.6786280409433,250.1815380830085,251.16524062503595,space,0.9815001249080524,None,251.16579274996184,251.26497119995764,251.58305512496736,251.56349695799872,251.5635379999876,252.5819862500066,717.7777777777777,1.0009151250123978,muskan,001,2023-10-31_15h03.06.010,experiment,2023.2.2,118.900409005157,2023-10-31 15h03.19.273856 +0530,
0.7,400,expected,2,11,35,8,252.58970020792913,,,,,,,252.58234062499832,253.07985258300323,253.79255312494934,space,0.7077406250173226,None,253.79325500002597,254.49872269998303,254.81250925001223,254.79583654098678,254.79585016600322,255.84860704094172,251.11111111111111,1.036763958982192,muskan,001,2023-10-31_15h03.06.010,experiment,2023.2.2,118.900409005157,2023-10-31 15h03.19.273856 +0530,
0.4,400,expected,3,0,36,7,255.8564133750042,,,,,,,255.84887391596567,256.356949790963,256.77436879102606,space,0.41177704103756696,None,256.77459004102275,257.1817678659456,257.5007412909763,257.4801730409963,257.48022079095244,258.5656882079784,407.77777777777777,1.0652391659095883,muskan,001,2023-10-31_15h03.06.010,experiment,2023.2.2,118.900409005157,2023-10-31 15h03.19.273856 +0530,
0.4,400,expected,3,1,37,10,258.5729947499931,,,,,,,258.5659617909696,259.06418699992355,259.9147853750037,space,0.8448948339791968,None,259.9150089159375,260.3150971580064,260.6321704159491,260.61354695796035,260.6135918329237,261.64353208302055,507.77777777777777,1.0110840840497985,muskan,001,2023-10-31_15h03.06.010,experiment,2023.2.2,118.900409005157,2023-10-31 15h03.19.273856 +0530,
0.4,400,expected,3,2,38,3,261.6492755829822,,,,,,,261.64379383297637,262.14686691598035,262.67446112493053,space,0.5199652909068391,None,262.6751332079293,263.0824571999721,263.39787758293096,263.37950158293825,263.3795457909582,264.49356929096393,603.3333333333333,1.095496958005242,muskan,001,2023-10-31_15h03.06.010,experiment,2023.2.2,118.900409005157,2023-10-31 15h03.19.273856 +0530,
0.4,1000,unexpected,3,3,39,2,264.4995068330318,,,,,,,264.4938291249564,264.9977815829916,265.7661520410329,space,0.7610675840405747,None,265.7663802499883,266.1655350749381,266.4807652080199,266.46349004097283,266.46353091602214,267.9285407080315,65.55555555555553,1.4470641249790788,muskan,001,2023-10-31_15h03.06.010,experiment,2023.2.2,118.900409005157,2023-10-31 15h03.19.273856 +0530,
0.1,400,expected,3,4,40,1,267.94009749998804,,,,,,,267.9288040000247,268.43094474996906,269.11488108302,space,0.6804880830459297,None,269.1151006249711,269.21566882501355,269.53210829093587,269.5132813749369,269.51332908298355,270.6700276249321,66.66666666666666,1.1383657089900225,muskan,001,2023-10-31_15h03.06.010,experiment,2023.2.2,118.900409005157,2023-10-31 15h03.19.273856 +0530,
0.1,400,expected,3,5,41,6,270.67658724996727,,,,,,,270.67029645794537,271.1730489579495,272.0984055829467,space,0.9181415420025587,None,272.09867654100526,272.1987414909992,272.51463341596536,272.4966101249447,272.4966514999978,273.54346824996173,332.2222222222222,1.0279666249407455,muskan,001,2023-10-31_15h03.06.010,experiment,2023.2.2,118.900409005157,2023-10-31 15h03.19.273856 +0530,
0.7,1000,unexpected,3,6,42,4,273.54947183292825,,,,,,,273.5437366249971,274.0475357079413,274.7649567499757,space,0.7142270829062909,None,274.76522804098204,275.4654316999251,275.7814822909422,275.7627788329264,275.7628255409654,278.13005179096945,30.00000000000003,2.348498500068672,muskan,001,2023-10-31_15h03.06.010,experiment,2023.2.2,118.900409005157,2023-10-31 15h03.19.273856 +0530,
0.1,1000,unexpected,3,7,43,0,278.1399002500111,,,,,,,278.13031945796683,278.6305982079357,279.55926324997563,space,0.9270108750788495,None,279.5600060829893,279.665506825014,279.98197462502867,279.9628384159878,279.96288141596597,281.3849487080006,20.000000000000018,1.4038144999649376,muskan,001,2023-10-31_15h03.06.010,experiment,2023.2.2,118.900409005157,2023-10-31 15h03.19.273856 +0530,
0.7,400,expected,3,8,44,8,281.3911055410281,,,,,,,281.385229040985,281.89015500003006,283.5910317909438,space,1.696391541045159,None,283.59135058301035,284.299047241034,284.61533758300357,284.59675945795607,284.59680441592354,285.86679345800076,223.33333333333331,1.251697791973129,muskan,001,2023-10-31_15h03.06.010,experiment,2023.2.2,118.900409005157,2023-10-31 15h03.19.273856 +0530,
0.1,400,expected,3,9,45,9,285.8737894159276,,,,,,,285.86708020803053,286.3736196659738,287.3147336660186,space,0.9343254589475691,None,287.31498583301436,287.4154969499679,287.73164404102135,287.71321099996567,287.7132490000222,289.2365760409739,557.7777777777778,1.5053918330231681,muskan,001,2023-10-31_15h03.06.010,experiment,2023.2.2,118.900409005157,2023-10-31 15h03.19.273856 +0530,
0.7,400,expected,3,10,46,11,289.24254987493623,,,,,,,289.2368378749816,289.7402157909237,290.4082609580364,space,0.6630890839733183,None,290.4089695829898,291.11510736593044,291.43128912500106,291.4134487910196,291.41348562494386,292.54946433298755,836.6666666666666,1.1188642079941928,muskan,001,2023-10-31_15h03.06.010,experiment,2023.2.2,118.900409005157,2023-10-31 15h03.19.273856 +0530,
0.7,400,expected,3,11,47,5,292.5565185409505,,,,,,,292.5497551249573,293.057272874983,294.12449791596737,space,1.0610289169708267,None,294.1247284580022,294.83250544993206,295.1488627080107,295.1299759160029,295.1300272080116,296.86467470799107,835.5555555555557,1.7164980419911444,muskan,001,2023-10-31_15h03.06.010,experiment,2023.2.2,118.900409005157,2023-10-31 15h03.19.273856 +0530,
0.1,400,expected,4,0,48,1,296.87342595797963,,,,,,,296.86493904097006,297.36421133298427,299.80924904101994,space,2.4433955419808626,None,299.8095026660012,299.91521724096964,300.23149162495974,300.2133460409241,300.21338608302176,301.24403099995106,840.0000000000001,1.0121188750490546,muskan,001,2023-10-31_15h03.06.010,experiment,2023.2.2,118.900409005157,2023-10-31 15h03.19.273856 +0530,
0.7,400,expected,4,1,49,8,301.2498735829722,,,,,,,301.2443019580096,301.7475414159708,302.7981652909657,space,1.044181082979776,None,302.79843891598284,303.49934240796136,303.81639212497976,303.79763983294833,303.7976806659717,305.3462742079282,834.4444444444445,1.530131999985315,muskan,001,2023-10-31_15h03.06.010,experiment,2023.2.2,118.900409005157,2023-10-31 15h03.19.273856 +0530,
0.4,400,expected,4,2,50,3,305.3568734159926,,,,,,,305.346547166002,305.84953358292114,307.3078218329465,space,1.4535521670477465,None,307.30803449999075,307.71596486603374,308.03076745802537,308.0129540829221,308.0129884160124,308.75710425002035,834.4444444444445,0.726449416950345,muskan,001,2023-10-31_15h03.06.010,experiment,2023.2.2,118.900409005157,2023-10-31 15h03.19.273856 +0530,
0.7,1000,unexpected,4,3,51,4,308.7627509579761,,,,,,,308.7573653749423,309.25733016594313,310.7417786249425,space,1.474623833084479,None,310.7424676659284,311.44791474093216,311.76431312493514,311.7463077499997,311.74635054101236,313.27067024994176,121.11111111111111,1.5067760410020128,muskan,001,2023-10-31_15h03.06.010,experiment,2023.2.2,118.900409005157,2023-10-31 15h03.19.273856 +0530,
0.1,1000,unexpected,4,4,52,0,313.27670841594227,,,,,,,313.2709387909854,313.77287145797163,316.5488531659357,space,2.773371374933049,None,316.5490847079782,316.64894536596256,316.9637213749811,316.945717082941,316.9457618750166,318.1796412910335,290.00000000000006,1.216525291907601,muskan,001,2023-10-31_15h03.06.010,experiment,2023.2.2,118.900409005157,2023-10-31 15h03.19.273856 +0530,
0.7,400,expected,4,5,53,5,318.19017158297356,,,,,,,318.1799037079327,318.68146591598634,319.46534933301155,space,0.7819952080026269,None,319.46558033302426,320.1660338659305,320.48191999993287,320.46352270792704,320.46357041597366,323.8461871659383,46.66666666666669,3.3645536249969155,muskan,001,2023-10-31_15h03.06.010,experiment,2023.2.2,118.900409005157,2023-10-31 15h03.19.273856 +0530,
0.4,400,expected,4,6,54,10,323.8568511250196,,,,,,,323.84645716601517,324.3495861659758,325.44185816601384,space,1.0852918330347165,None,325.44260108296294,325.8491794500034,326.1639466249617,326.14611091592815,326.14614816592075,327.3092235829681,46.66666666666669,1.1420800419291481,muskan,001,2023-10-31_15h03.06.010,experiment,2023.2.2,118.900409005157,2023-10-31 15h03.19.273856 +0530,
0.4,1000,unexpected,4,7,55,2,327.3148565830197,,,,,,,327.3094917909475,327.8145607500337,329.00792179093696,space,1.1876073750900105,None,329.00813937501516,329.4160134910373,329.73114129097667,329.7127293329686,329.71276404103264,330.62475466600154,46.66666666666669,0.8932209999766201,muskan,001,2023-10-31_15h03.06.010,experiment,2023.2.2,118.900409005157,2023-10-31 15h03.19.273856 +0530,
0.4,400,expected,4,8,56,7,330.63038745801896,,,,,,,330.62502499995753,331.13270208297763,332.19155466603115,space,1.052240208024159,None,332.19176141603384,332.59879665803163,332.9150052079931,332.8968496660236,332.8968945000088,333.9140131659806,46.66666666666669,0.9995967919239774,muskan,001,2023-10-31_15h03.06.010,experiment,2023.2.2,118.900409005157,2023-10-31 15h03.19.273856 +0530,
0.7,400,expected,4,9,57,11,333.9236802079249,,,,,,,333.91427499998827,334.4141701660119,336.09011670795735,space,1.670994958956726,None,336.09038700000383,336.7993217829382,337.1146122079808,337.09690554102417,337.096954416018,338.596877999953,46.66666666666669,1.4826931250281632,muskan,001,2023-10-31_15h03.06.010,experiment,2023.2.2,118.900409005157,2023-10-31 15h03.19.273856 +0530,
0.1,400,expected,4,10,58,9,338.6069667079719,,,,,,,338.5971408749465,339.09861699992325,340.1263490830315,space,1.02605791692622,None,340.12708191596903,340.23230328299104,340.5478539579781,340.5300659579225,340.53011208295356,341.9258324999828,537.7777777777778,1.3748802499612793,muskan,001,2023-10-31_15h03.06.010,experiment,2023.2.2,118.900409005157,2023-10-31 15h03.19.273856 +0530,
0.1,400,expected,4,11,59,6,341.93156099994667,,,,,,,341.9261132499669,342.42916262499057,343.83151316596195,space,1.3959241668926552,None,343.831842457992,343.9323062829673,344.2504080829676,344.23032816592604,344.2303779160138,345.81399087503087,763.3333333333333,1.5651321249315515,muskan,001,2023-10-31_15h03.06.010,experiment,2023.2.2,118.900409005157,2023-10-31 15h03.19.273856 +0530,
0.1,400,expected,5,0,60,1,345.8237188749481,,,,,,,345.81428841594607,346.3164827079745,347.41628229094204,space,1.096061334013939,None,347.41649879096076,347.51563124095554,347.83138400001917,347.8133999159327,347.81343533296604,349.2486091250321,794.4444444444445,1.4175284159136936,muskan,001,2023-10-31_15h03.06.010,experiment,2023.2.2,118.900409005157,2023-10-31 15h03.19.273856 +0530,
0.1,1000,unexpected,5,1,61,0,349.2568158749491,,,,,,,349.24888208298944,349.7480774159776,350.848614040995,space,1.095530707971193,None,350.8488507500151,350.94914540792814,351.2675505829975,351.2469025410246,351.24694833299145,354.2078830000246,794.4444444444445,2.9410034159664065,muskan,001,2023-10-31_15h03.06.010,experiment,2023.2.2,118.900409005157,2023-10-31 15h03.19.273856 +0530,
0.7,400,expected,5,2,62,8,354.2135071249213,,,,,,,354.208155374974,354.71429683302995,357.50856624997687,space,2.787583832978271,None,357.5088159160223,358.2160945749376,358.53167554095853,358.51345937501173,358.51350470795296,359.5303776660003,794.4444444444445,0.9991230410523713,muskan,001,2023-10-31_15h03.06.010,experiment,2023.2.2,118.900409005157,2023-10-31 15h03.19.273856 +0530,
0.7,1000,unexpected,5,3,63,4,359.54040608298965,,,,,,,359.53064649994485,360.0331584159285,360.9756381249754,space,0.9379082079976797,None,360.97628308297135,361.68273169994353,361.9974318749737,361.9795014580013,361.97955249994993,363.2468502499396,41.1111111111111,1.2500081249745563,muskan,001,2023-10-31_15h03.06.010,experiment,2023.2.2,118.900409005157,2023-10-31 15h03.19.273856 +0530,
0.4,1000,unexpected,5,4,64,2,363.25704583292827,,,,,,,363.24711233295966,363.7496807909338,364.9256787500344,space,1.1657103749457747,None,364.92634566593915,365.332755324943,365.6492551249685,365.62984470801894,365.62989262503106,368.28013283293694,217.7777777777778,2.631521916948259,muskan,001,2023-10-31_15h03.06.010,experiment,2023.2.2,118.900409005157,2023-10-31 15h03.19.273856 +0530,
0.7,400,expected,5,5,65,11,368.29055220796727,,,,,,,368.28040054102894,368.78211333299987,370.96492545795627,space,2.176443584030494,None,370.96517741598655,371.6662299079355,371.9827237910358,371.9634348329855,371.9634733329294,372.99188220803626,217.7777777777778,1.0093580828979611,muskan,001,2023-10-31_15h03.06.010,experiment,2023.2.2,118.900409005157,2023-10-31 15h03.19.273856 +0530,
0.4,400,expected,5,6,66,3,372.99756670801435,,,,,,,372.9921449579997,373.49841170792934,374.79229808296077,space,1.2892200839705765,None,374.7930239159614,375.1995024909731,375.51477220794186,375.4970817499561,375.49713266594335,378.824855749961,625.5555555555555,3.3103213330032304,muskan,001,2023-10-31_15h03.06.010,experiment,2023.2.2,118.900409005157,2023-10-31 15h03.19.273856 +0530,
0.4,400,expected,5,7,67,7,378.8304895829642,,,,,,,378.82512104092166,379.3232659579953,381.1321058749454,space,1.802763000014238,None,381.1323658749461,381.5327226579422,381.84819816600066,381.82996024994645,381.829998082947,383.5743465409614,716.6666666666666,1.7271884169895202,muskan,001,2023-10-31_15h03.06.010,experiment,2023.2.2,118.900409005157,2023-10-31 15h03.19.273856 +0530,
0.7,400,expected,5,8,68,5,383.58005112502724,,,,,,,383.57461433298886,384.07403154100757,386.42512162495404,space,2.347919249907136,None,386.42536158300936,387.1325153660029,387.4478504579747,387.4295198749751,387.429559082957,388.6927047909703,834.4444444444445,1.2418451249832287,muskan,001,2023-10-31_15h03.06.010,experiment,2023.2.2,118.900409005157,2023-10-31 15h03.19.273856 +0530,
0.1,400,expected,5,9,69,9,388.6985457499977,,,,,,,388.69296895794105,389.19848441600334,393.3821443329798,space,4.17822400003206,None,393.38239891594276,393.48251032496336,393.8002605829388,393.78018966596574,393.78023058292456,396.6871026660083,444.4444444444444,2.8874893750762567,muskan,001,2023-10-31_15h03.06.010,experiment,2023.2.2,118.900409005157,2023-10-31 15h03.19.273856 +0530,
0.1,400,expected,5,10,70,6,396.69323066598736,,,,,,,396.6873872500146,397.1914176660357,397.9419272909872,space,0.7467999579384923,None,397.9425970829325,398.04923169994726,398.36512304097414,398.3471849160269,398.34722254099324,400.55329683294985,754.4444444444445,2.1890445839380845,muskan,001,2023-10-31_15h03.06.010,experiment,2023.2.2,118.900409005157,2023-10-31 15h03.19.273856 +0530,
0.4,400,expected,5,11,71,10,400.559509707964,,,,,,,400.5535619999282,401.0574808330275,402.29164529102854,space,1.2266858340008184,None,402.2920223749243,402.69959136603865,403.01767070801,402.99649204092566,402.99651641596574,406.5935413329862,248.88888888888889,3.5780341250356287,muskan,001,2023-10-31_15h03.06.010,experiment,2023.2.2,118.900409005157,2023-10-31 15h03.19.273856 +0530,
0.1,1000,unexpected,6,0,72,0,406.5993982909713,,,,,,,406.59390849992633,407.0986550829839,408.06583566602785,space,0.961687917006202,None,408.0661025409354,408.1661280750297,408.482591665932,408.4635182500351,408.4635722079547,410.1200037909439,0,1.6374848750419915,muskan,001,2023-10-31_15h03.06.010,experiment,2023.2.2,118.900409005157,2023-10-31 15h03.19.273856 +0530,
0.4,400,expected,6,1,73,7,410.12626208295114,,,,,,,410.1203208749648,410.6249470829498,411.5480941249989,space,0.9169256249442697,None,411.5483355409233,411.9497774909716,412.26624520798214,412.247170040966,412.2472088750219,415.2603976660175,250.0,2.9940821250202134,muskan,001,2023-10-31_15h03.06.010,experiment,2023.2.2,118.900409005157,2023-10-31 15h03.19.273856 +0530,
0.4,1000,unexpected,6,2,74,2,415.2660254579969,,,,,,,415.26065645797644,415.7645645829616,417.53447229100857,space,1.7603157080011442,None,417.53473270800896,417.9394901579246,418.25586391601246,418.23737200000323,418.23741558298934,419.58355862495955,17.777777777777782,1.3286147089675069,muskan,001,2023-10-31_15h03.06.010,experiment,2023.2.2,118.900409005157,2023-10-31 15h03.19.273856 +0530,
0.1,400,expected,6,3,75,6,419.5903112909291,,,,,,,419.58382683293894,420.09155737492256,421.9588211659575,space,1.8638984999852255,None,421.9595701249782,422.06597282497677,422.3821924999356,422.36390054097865,422.3639489579946,424.0797864999622,246.66666666666666,1.697830583085306,muskan,001,2023-10-31_15h03.06.010,experiment,2023.2.2,118.900409005157,2023-10-31 15h03.19.273856 +0530,
0.1,400,expected,6,4,76,9,424.090542666032,,,,,,,424.08005400002,424.5816353330156,425.2585400409298,space,0.6762934590224177,None,425.2587465000106,425.3662988659227,425.6797366249375,425.66331512492616,425.66332920792047,426.56711770792026,246.66666666666666,0.8874895001063123,muskan,001,2023-10-31_15h03.06.010,experiment,2023.2.2,118.900409005157,2023-10-31 15h03.19.273856 +0530,
0.7,400,expected,6,5,77,8,426.5737285829382,,,,,,,426.5673886250006,427.074390499969,428.32613787497394,space,1.2460242080269381,None,428.3267914579483,429.0329980749404,429.34843995794654,429.33043429092504,429.3304788749665,430.88256791594904,233.33333333333334,1.5350249171024188,muskan,001,2023-10-31_15h03.06.010,experiment,2023.2.2,118.900409005157,2023-10-31 15h03.19.273856 +0530,
0.4,400,expected,6,6,78,10,430.890104125021,,,,,,,430.882829915965,431.38283008302096,432.4918641250115,space,1.1043814999284223,None,432.4925229999935,432.8990375330206,433.2168937079841,433.197285000002,433.19733229093254,435.13319162500557,235.55555555555557,1.9171699590515345,muskan,001,2023-10-31_15h03.06.010,experiment,2023.2.2,118.900409005157,2023-10-31 15h03.19.273856 +0530,
0.1,400,expected,6,7,79,1,435.13989500002936,,,,,,,435.133452540962,435.6316169159254,436.25006529095117,space,0.6156767089851201,None,436.2502766660182,436.3494500749977,436.6666843330022,436.64698304096237,436.6470121659804,437.8729417079594,234.44444444444446,1.2068226670380682,muskan,001,2023-10-31_15h03.06.010,experiment,2023.2.2,118.900409005157,2023-10-31 15h03.19.273856 +0530,
0.7,400,expected,6,8,80,11,437.8789998330176,,,,,,,437.87322091602255,438.37413187499624,439.1930977499578,space,0.8172978749498725,None,439.1938073330093,439.8997907409677,440.21707462496124,440.20044837496243,440.2004586249823,442.0863685410004,505.55555555555554,1.8701920829480514,muskan,001,2023-10-31_15h03.06.010,experiment,2023.2.2,118.900409005157,2023-10-31 15h03.19.273856 +0530,
0.7,1000,unexpected,6,9,81,4,442.10692695796024,,,,,,,442.08663345803507,442.59007237502374,443.1097189580323,space,0.517998458002694,None,443.1102171660168,443.8161765329307,444.13343687495217,444.1138935829513,444.1139427080052,445.3166445409879,4.444444444444418,1.1838167499518022,muskan,001,2023-10-31_15h03.06.010,experiment,2023.2.2,118.900409005157,2023-10-31 15h03.19.273856 +0530,
0.4,400,expected,6,10,82,3,445.3232451250078,,,,,,,445.3169069159776,445.8154761249898,446.6083300829632,space,0.7900637499988079,None,446.6085425829515,447.01622345000504,447.33203162497375,447.31384237494785,447.3138830829412,448.9678159999894,271.1111111111111,1.6350623749895021,muskan,001,2023-10-31_15h03.06.010,experiment,2023.2.2,118.900409005157,2023-10-31 15h03.19.273856 +0530,
0.7,400,expected,6,11,83,5,448.974522790988,,,,,,,448.968084541033,449.4742250830168,450.7580488329986,space,1.2784616249846295,None,450.7582689579576,451.4661125329323,451.7828497909941,451.7642446249956,451.7642839580076,452.9533104579896,465.55555555555554,1.1712168330559507,muskan,001,2023-10-31_15h03.06.010,experiment,2023.2.2,118.900409005157,2023-10-31 15h03.19.273856 +0530,
0.7,400,expected,7,0,84,8,452.95947116601747,,,,,,,452.9535828749649,453.45785437501036,454.61607224994805,space,1.1522757499478757,None,454.61630041594617,455.31641540797426,455.6313729159301,455.6129808749538,455.61303033295553,456.8466813330306,540.0,1.2150970419170335,muskan,001,2023-10-31_15h03.06.010,experiment,2023.2.2,118.900409005157,2023-10-31 15h03.19.273856 +0530,
0.4,1000,unexpected,7,1,85,2,456.8568754160078,,,,,,,456.8469529580325,457.34953912498895,459.29222637496423,space,1.933255875017494,None,459.2928989159409,459.69913774093146,460.01654854102526,459.99751883302815,459.9975550409872,461.5443661250174,7.777777777777772,1.5278939999407157,muskan,001,2023-10-31_15h03.06.010,experiment,2023.2.2,118.900409005157,2023-10-31 15h03.19.273856 +0530,
0.1,1000,unexpected,7,2,86,0,461.55003549996763,,,,,,,461.5446319580078,462.04896583303344,463.4491570829414,space,1.3971882079495117,None,463.4497134999838,463.5495067829499,463.8682417910313,463.84718262497336,463.84722300001886,464.793600999983,7.777777777777772,0.9264357500942424,muskan,001,2023-10-31_15h03.06.010,experiment,2023.2.2,118.900409005157,2023-10-31 15h03.19.273856 +0530,
0.4,400,expected,7,3,87,3,464.7992339580087,,,,,,,464.7939020829508,465.29778908297885,466.04330895794556,space,0.7438953750533983,None,466.0440542079741,466.44964261602144,466.76504258299246,466.7472554160049,466.7472916250117,468.09676537499763,315.5555555555556,1.3319363750051707,muskan,001,2023-10-31_15h03.06.010,experiment,2023.2.2,118.900409005157,2023-10-31 15h03.19.273856 +0530,
0.7,400,expected,7,4,88,5,468.1069349159952,,,,,,,468.0970332500292,468.5982708330266,469.3822173329536,space,0.7770832079695538,None,469.38245791592635,470.0827374909306,470.39914966595825,470.3804484580178,470.38049070793204,471.42280479101464,311.11111111111114,1.0240629999898374,muskan,001,2023-10-31_15h03.06.010,experiment,2023.2.2,118.900409005157,2023-10-31 15h03.19.273856 +0530,
0.7,1000,unexpected,7,5,89,4,471.4283854579553,,,,,,,471.42311045795213,471.92384279100224,472.49911066598725,space,0.573967874981463,None,472.49933237500954,473.1996190329548,473.51572166592814,473.4973409579834,473.497391041019,475.6369090829976,2.2222222222222365,2.1217534170718864,muskan,001,2023-10-31_15h03.06.010,experiment,2023.2.2,118.900409005157,2023-10-31 15h03.19.273856 +0530,
0.1,400,expected,7,6,90,6,475.64300874993205,,,,,,,475.6371720409952,476.1408449159935,476.8084027080331,space,0.660495207994245,None,476.8086534999311,476.9160674079787,477.2318134580273,477.2138556250138,477.2139011659892,479.7648818750167,250.0,2.533995083067566,muskan,001,2023-10-31_15h03.06.010,experiment,2023.2.2,118.900409005157,2023-10-31 15h03.19.273856 +0530,
0.4,400,expected,7,7,91,7,479.77420241595246,,,,,,,479.7651493749581,480.2656632079743,481.03342458303086,space,0.7618783330544829,None,481.03366566600744,481.43319219995755,481.7485502079362,481.7301323750289,481.7301775829401,483.32722866593394,496.66666666666663,1.579327084007673,muskan,001,2023-10-31_15h03.06.010,experiment,2023.2.2,118.900409005157,2023-10-31 15h03.19.273856 +0530,
0.1,400,expected,7,8,92,9,483.33287174999714,,,,,,,483.32749416597653,483.8320924999425,485.026481583016,space,1.1925972920143977,None,485.02720633300487,485.13269515794235,485.44812816602644,485.43032641592436,485.43036316602957,487.0965945000062,255.55555555555554,1.6483111249981448,muskan,001,2023-10-31_15h03.06.010,experiment,2023.2.2,118.900409005157,2023-10-31 15h03.19.273856 +0530,
0.7,400,expected,7,9,93,11,487.1075362500269,,,,,,,487.0968589159893,487.5995647079544,488.77598304103594,space,1.1707696249941364,None,488.77664737496525,489.4833244500216,489.79889941599686,489.78034349996597,489.78038416593336,491.2581633749651,498.88888888888886,1.4594629999483004,muskan,001,2023-10-31_15h03.06.010,experiment,2023.2.2,118.900409005157,2023-10-31 15h03.19.273856 +0530,
0.4,400,expected,7,10,94,10,491.2640339159407,,,,,,,491.2584370409604,491.76573949994054,492.8989896660205,space,1.1318311248905957,None,492.89920983300544,493.2995034499792,493.6152730829781,493.5972886249656,493.59734049998224,494.49917333293706,495.5555555555556,0.8848141670459881,muskan,001,2023-10-31_15h03.06.010,experiment,2023.2.2,118.900409005157,2023-10-31 15h03.19.273856 +0530,
0.1,400,expected,7,11,95,1,494.50683583295904,,,,,,,494.49943904101383,494.998866082984,496.66608295799233,space,1.6598699589958414,None,496.6663041659631,496.7661730329739,497.0812255409546,497.0636398330098,497.06369095796254,498.0105534159811,600.0,0.9288997920230031,muskan,001,2023-10-31_15h03.06.010,experiment,2023.2.2,118.900409005157,2023-10-31 15h03.19.273856 +0530,
0.7,400,expected,8,0,96,11,498.016543500009,,,,,,,498.01081783301197,498.5131190409884,499.17551683296915,space,0.6563485829392448,None,499.17577804101165,499.8832805329468,500.19794899993576,500.18003395793494,500.1800715409918,501.3206881659571,465.55555555555554,1.1231830419274047,muskan,001,2023-10-31_15h03.06.010,experiment,2023.2.2,118.900409005157,2023-10-31 15h03.19.273856 +0530,
0.1,400,expected,8,1,97,9,501.3269141250057,,,,,,,501.32094649993815,501.82464062492363,502.6986076249741,space,0.8714302920270711,None,502.6988426250173,502.79956836595665,503.1152877500281,503.0969034580048,503.0969434999861,504.14978641597554,270.0,1.0356508750701323,muskan,001,2023-10-31_15h03.06.010,experiment,2023.2.2,118.900409005157,2023-10-31 15h03.19.273856 +0530,
0.4,400,expected,8,2,98,7,504.157269957941,,,,,,,504.15005291602574,504.64930225000717,505.2262662079884,space,0.5753037920221686,None,505.2269883749541,505.6325837829383,505.9485064999899,505.93072687496897,505.9307770830346,507.00459979102015,235.55555555555557,1.0560595419956371,muskan,001,2023-10-31_15h03.06.010,experiment,2023.2.2,118.900409005157,2023-10-31 15h03.19.273856 +0530,
0.4,400,expected,8,3,99,10,507.01082450000104,,,,,,,507.00486316601746,507.5074291250203,509.1755186249502,space,1.6595573329832405,None,509.17619683302473,509.583255115943,509.89904466597363,509.88075020792894,509.88080008293036,511.30350162496325,353.3333333333333,1.4051627909066156,muskan,001,2023-10-31_15h03.06.010,experiment,2023.2.2,118.900409005157,2023-10-31 15h03.19.273856 +0530,
0.1,400,expected,8,4,100,1,511.31021933292504,,,,,,,511.30376529099885,511.80737737496383,512.8494895829353,space,1.0414349581114948,None,512.849701207946,512.9494915330317,513.2663214999484,513.2472991659306,513.2473499579355,514.1815208749613,350.0,0.9160626659868285,muskan,001,2023-10-31_15h03.06.010,experiment,2023.2.2,118.900409005157,2023-10-31 15h03.19.273856 +0530,
0.7,400,expected,8,5,101,8,514.190657665953,,,,,,,514.1818282080349,514.6826853749808,516.6321331659565,space,1.9455764999147505,None,516.6323778749211,517.3333045329666,517.6482332909945,517.6300421659835,517.6300817499869,518.8974772499641,341.11111111111114,1.2495678330305964,muskan,001,2023-10-31_15h03.06.010,experiment,2023.2.2,118.900409005157,2023-10-31 15h03.19.273856 +0530,
0.4,400,expected,8,6,102,3,518.9075799999991,,,,,,,518.8977394999238,519.3983152909204,520.6828316249885,space,1.278353290981613,None,520.6830688749906,521.0832634079736,521.399629915948,521.380654291017,521.3806926659308,522.5014994579833,493.33333333333337,1.1015107081038877,muskan,001,2023-10-31_15h03.06.010,experiment,2023.2.2,118.900409005157,2023-10-31 15h03.19.273856 +0530,
0.1,1000,unexpected,8,7,103,0,522.5091643329943,,,,,,,522.5017877910286,523.0075372080319,524.7425887499703,space,1.728207458043471,None,524.7432694999734,524.8494734080043,525.1657335829223,525.1473663749639,525.1474044159986,527.1323475829558,2.2222222222222365,1.967547000036575,muskan,001,2023-10-31_15h03.06.010,experiment,2023.2.2,118.900409005157,2023-10-31 15h03.19.273856 +0530,
0.7,400,expected,8,8,104,5,527.1406644160161,,,,,,,527.132616332965,527.6325863749953,528.8250757079804,space,1.1884769579628482,None,528.8256262079813,529.5332033249317,529.849456707947,529.8307558329543,529.8307988749584,531.1532989579719,268.8888888888889,1.3051792089827359,muskan,001,2023-10-31_15h03.06.010,experiment,2023.2.2,118.900409005157,2023-10-31 15h03.19.273856 +0530,
0.7,1000,unexpected,8,9,105,4,531.173765790998,,,,,,,531.1536401249468,531.6578698749654,532.8348152909894,space,1.1672206250950694,None,532.8350526249269,533.5401256999933,533.8558707080083,533.8375305830268,533.8375669160159,535.1832987909438,10.000000000000009,1.328504291945137,muskan,001,2023-10-31_15h03.06.010,experiment,2023.2.2,118.900409005157,2023-10-31 15h03.19.273856 +0530,
0.4,1000,unexpected,8,10,106,2,535.1907065829728,,,,,,,535.1835613750154,535.6825670829276,536.5655859999824,space,0.8786312500014901,None,536.5658456250094,536.9665101999883,537.283564915997,537.2643127909396,537.2643613750115,538.1300732499221,8.888888888888891,0.8466904170345515,muskan,001,2023-10-31_15h03.06.010,experiment,2023.2.2,118.900409005157,2023-10-31 15h03.19.273856 +0530,
0.1,400,expected,8,11,107,6,538.1404426660156,,,,,,,538.1303349579684,538.6326850409387,539.7322136249859,space,1.0942080829991028,None,539.7324552079663,539.8329719499918,540.149297832977,540.1304148329655,540.1304645410273,541.3443612910341,317.77777777777777,1.1949793749954551,muskan,001,2023-10-31_15h03.06.010,experiment,2023.2.2,118.900409005157,2023-10-31 15h03.19.273856 +0530,
0.7,1000,unexpected,9,0,108,4,541.3500359159661,,,,,,,541.344627375016,541.8474520830205,543.3759275409393,space,1.5190458750585094,None,543.3765608329559,544.0833135749447,544.3986941250041,544.3809677079553,544.3810067910235,546.6635940410197,49.999999999999986,2.26457095798105,muskan,001,2023-10-31_15h03.06.010,experiment,2023.2.2,118.900409005157,2023-10-31 15h03.19.273856 +0530,
0.4,400,expected,9,1,109,3,546.6737746249419,,,,,,,546.6638788749697,547.1656485409476,547.7253930409206,space,0.5560603749472648,None,547.7255979159381,548.1324097409845,548.4502800409682,548.4310437500244,548.4310893749353,549.6130265409593,585.5555555555557,1.1628092500614002,muskan,001,2023-10-31_15h03.06.010,experiment,2023.2.2,118.900409005157,2023-10-31 15h03.19.273856 +0530,
0.4,400,expected,9,2,110,10,549.6243020829279,,,,,,,549.6132952909684,550.116343832924,551.5266150829848,space,1.4086849170271307,None,551.5274197079707,551.9326838249574,552.2484281249344,552.2309335409664,552.2309704999207,553.8598759159213,631.1111111111112,1.6083823749795556,muskan,001,2023-10-31_15h03.06.010,experiment,2023.2.2,118.900409005157,2023-10-31 15h03.19.273856 +0530,
0.4,1000,unexpected,9,3,111,2,553.8657940829871,,,,,,,553.8601464999374,554.3653764160117,555.3497824999504,space,0.9771089169662446,None,555.3500009999843,555.7501967410092,556.0652286249679,556.0475067079533,556.0475454159314,557.7598407500191,0,1.6915638749487698,muskan,001,2023-10-31_15h03.06.010,experiment,2023.2.2,118.900409005157,2023-10-31 15h03.19.273856 +0530,
0.1,400,expected,9,4,112,9,557.7655714999419,,,,,,,557.7601093749981,558.2645190829644,558.9423661249457,space,0.6700084169860929,None,558.9430399999255,559.0499631159939,559.3657594579272,559.3469851659611,559.3470327500254,560.7063191659981,193.33333333333337,1.340912332991138,muskan,001,2023-10-31_15h03.06.010,experiment,2023.2.2,118.900409005157,2023-10-31 15h03.19.273856 +0530,
0.4,400,expected,9,5,113,7,560.7123254159233,,,,,,,560.7066027079709,561.2078417079756,562.2756312909769,space,1.0625336249358952,None,562.2758623330155,562.683562908019,562.9992668749765,562.980747750029,562.9807982079219,564.0501772080315,246.66666666666666,1.0517552909441292,muskan,001,2023-10-31_15h03.06.010,experiment,2023.2.2,118.900409005157,2023-10-31 15h03.19.273856 +0530,
0.7,400,expected,9,6,114,8,564.0573614999885,,,,,,,564.050442165928,564.5490622499492,566.9504203749821,space,2.3992242499953136,None,566.9506445829757,567.6499394909945,567.9663189579733,567.9473912499379,567.9474386249203,568.9262630000012,316.66666666666663,0.9451852089259773,muskan,001,2023-10-31_15h03.06.010,experiment,2023.2.2,118.900409005157,2023-10-31 15h03.19.273856 +0530,
0.1,400,expected,9,7,115,1,568.9409115830204,,,,,,,568.926535082981,569.4323480830062,571.3256842499832,space,1.8867743330774829,None,571.3263486659853,571.4330639909488,571.7499012500048,571.7310472909594,571.7310918750009,572.8097767499276,371.1111111111111,1.0574329580413178,muskan,001,2023-10-31_15h03.06.010,experiment,2023.2.2,118.900409005157,2023-10-31 15h03.19.273856 +0530,
0.1,400,expected,9,8,116,6,572.8158250829438,,,,,,,572.8100413329666,573.31685212499,574.2999750409508,space,0.9804363329894841,None,574.3002023749286,574.3996453249595,574.7152675410034,574.6976153330179,574.697660582955,575.7344275829382,424.44444444444446,1.0191907910630107,muskan,001,2023-10-31_15h03.06.010,experiment,2023.2.2,118.900409005157,2023-10-31 15h03.19.273856 +0530,
0.1,1000,unexpected,9,9,117,0,575.741077707964,,,,,,,575.7346919999691,576.2403512910241,577.1156178750098,space,0.8703616249840707,None,577.115871915943,577.2164209909272,577.5334134580335,577.5143245829968,577.5143708749674,579.3879145409446,16.666666666666664,1.8548306659795344,muskan,001,2023-10-31_15h03.06.010,experiment,2023.2.2,118.900409005157,2023-10-31 15h03.19.273856 +0530,
0.7,400,expected,9,10,118,5,579.394068374997,,,,,,,579.3881722500082,579.8903782499256,580.6149852080271,space,0.7180550000630319,None,580.6152393749217,581.3161337000085,581.6322649159702,581.6142077079276,581.6142578329891,582.7795266659232,325.55555555555554,1.146434499998577,muskan,001,2023-10-31_15h03.06.010,experiment,2023.2.2,118.900409005157,2023-10-31 15h03.19.273856 +0530,
0.7,400,expected,9,11,119,11,582.7910830830224,,,,,,,582.7798140830128,583.2828454159899,584.6258341659559,space,1.3375746250385419,None,584.6265207499964,585.3331555750221,585.6491130000213,585.6308221250074,585.6308865000028,586.480978165986,329.99999999999994,0.8323956250678748,muskan,001,2023-10-31_15h03.06.010,experiment,2023.2.2,118.900409005157,2023-10-31 15h03.19.273856 +0530,
